accel_x,accel_y,accel_z,temperature,cos_phi,class
-0.250919762305275,-0.21272895944511583,-0.252718363066603,49.98021462374321,0.8649991554949852,0
0.9014286128198323,-0.05312868124995718,-0.33417580753719345,64.80480635075565,0.5922559977993558,1
0.4639878836228102,0.7090947864043606,-0.6476921749942799,53.76000683937999,0.6733198471849431,1
0.1973169683940732,-0.3199912278802157,0.21453334020297588,24.99815498670778,0.8316403184289092,0
-0.687962719115127,0.7392993696243426,-0.04675167898274224,31.134814207013324,0.7410446722622399,3
-0.6880109593275947,-0.823731138046617,0.7314019846480073,33.15969104185515,0.8692855193174469,3
-0.8838327756636011,0.5535968744172615,-0.9357808390358835,35.47185521869069,0.9806039506114299,3
0.7323522915498704,0.6950952661094727,0.2877358551102527,53.92420351703026,0.5582733438575987,1
0.2022300234864176,-0.6363646943253225,0.5258977570231222,50.237946789523605,0.8547838581990305,1
0.416145155592091,-0.13930693525559912,0.5189731383766141,32.18960230185253,0.6151720778160572,3
-0.9588310114083951,-0.6690004506726888,0.7721479341910502,24.053290607341225,0.7072383637037847,3
0.9398197043239886,0.4132082579884355,0.45806748565898814,30.285932268483084,0.5164313628975699,3
0.6648852816008435,0.07069553612331347,0.8556201232953926,79.0628787571162,0.5679536911463494,3
-0.5753217786434477,0.27064669341664205,-0.3346868003582171,48.11281698748834,0.6598886445244498,3
-0.6363500655857988,-0.6070260660875777,0.006418833503086141,72.04073028212675,0.6709929026439925,3
-0.6331909802931324,-0.576508275895161,-0.9718406734342186,70.9251480001306,0.9497926082310479,3
-0.39151551408092455,-0.9170053489801873,-0.9860848253934176,50.69117344777242,0.8709064546332576,1
0.04951286326447568,-0.35586492960854055,-0.5197467590969602,62.40126250763261,0.9860914840935205,1
-0.13610996271576847,0.1194893226673499,-0.7983856057218295,31.565120624762738,0.7995357551676203,3
-0.4175417196039162,0.7158698279946576,-0.4795772641284928,61.303802295614496,0.620856866045659,1
0.22370578944475894,0.3338548949173614,-0.6459134109432052,36.343074755797375,0.6638275149608215,3
-0.7210122786959163,-0.12920735320049714,-0.9429599503227035,69.92372580524905,0.6599179616459836,3
-0.4157107029295637,0.9062402287882756,0.8186082928120988,25.023447986534595,0.6632471638316257,3
-0.2672763134126166,0.4384904011516637,-0.983553737222217,66.38832037311664,0.8364820865559078,3
-0.08786003156592814,0.8603304057251,0.4721642886741708,25.99621439411717,0.7654039640452082,3
0.5703519227860272,0.055175946544331333,-0.6957042261609669,72.87135421365853,0.6927120890433222,3
-0.6006524356832805,-0.4821914504137208,0.8244592439992,38.25227108810022,0.5745448843643584,3
0.02846887682722321,-0.894346627270556,0.7855918791797716,59.26360188983448,0.511069581471073,1
0.18482913772408494,0.452169702967701,0.30780229273851467,49.25013671721679,0.6094173387938463,3
-0.9070991745600046,-0.7573940039889318,0.3444682996012103,41.97818871574034,0.5537357019843406,3
0.21508970380287673,-0.39444974345606565,-0.9893217160606229,58.726509991009785,0.8927225154261197,1
-0.6589517526254169,0.06494181576779479,0.9697431322272041,76.85137883307428,0.5562489789069427,3
-0.869896814029441,0.12883317555949536,0.7556652071516288,22.476184842477313,0.862114118653418,3
0.8977710745066665,0.20116639397427205,0.790212451460184,75.13117135298626,0.6928293448880414,3
0.9312640661491187,-0.6674893393005987,0.3184890741017439,56.54489930126081,0.5366891948718879,1
0.6167946962329223,-0.2405251903567025,-0.31042614269092694,68.43885804614314,0.9063650247157928,3
-0.39077246165325863,0.2343884542339334,0.7872972981809616,43.032497206056654,0.7898152851183067,3
-0.8046557719872323,0.9396377292675695,-0.4169661436976153,48.31057849025682,0.6178807564317865,3
0.3684660530243138,0.45526227539937736,0.12542308668440572,72.13104510806984,0.947340587166334,3
-0.1196950125207974,0.8452075141879156,-0.8005380553122352,44.89087818858938,0.5226291569352757,3
-0.7559235303104423,0.5244241166283541,0.8439112602655003,52.0795740049451,0.6009098040988814,1
-0.00964617977745963,0.18343393778480088,-0.7184590844575733,21.211695385059976,0.8760234639029305,3
-0.9312229577695632,-0.6159532617273109,-0.5502063885391855,29.515880350282536,0.8546889651549445,3
0.8186408041575641,0.3333713037850261,0.11626831625642997,58.501190478487985,0.6446358468622391,1
-0.48244003679996617,0.24675913191981413,0.5281860004259631,63.01861406383263,0.5310124376763916,1
0.32504456870796394,0.2049383409145329,0.2387026118725979,54.95605620706996,0.9290390361124718,2
-0.3765778478211781,-0.020428264023518494,-0.5357321743996877,28.59860217653664,0.6568488190349513,3
0.040136042355621626,0.05731320797855122,-0.9981139149450193,46.72432571467009,0.5978567074641326,3
0.0934205586865593,-0.33111494576379186,0.5143011606148784,41.305685981791385,0.7580309111804886,3
-0.6302910889489459,0.03862538528460635,0.9704146518221874,49.7396806421053,0.9551135996412237,3
0.9391692555291171,-0.6048881886430435,0.6198262406121808,72.21974207324565,0.5217732889216877,3
0.5502656467222291,0.6103487947207535,-0.07958676368676931,66.55168631951912,0.8829020440154438,3
0.8789978831283782,-0.6284460906025844,0.8075345227982131,25.03937008334954,0.7862366139693544,3
0.7896547008552977,-0.8300674202210672,-0.18030465376329996,73.41855186647385,0.7127245582759085,3
0.19579995762217028,-0.12750794728568526,0.049868168486935094,48.30602906898942,0.8720402220525301,0
0.8437484700462337,0.3166148790121237,-0.04574046520863351,64.63172869315991,0.9829122122208162,1
-0.823014995896161,-0.12456635013291728,-0.1047522546689501,28.402353875861127,0.6146031055813455,3
-0.6080342751617096,-0.4464917360973828,0.5503815385878115,60.243171542422886,0.5718236825360599,1
-0.9095454221789239,0.11634236778088147,0.053537814538983985,34.17956105656748,0.9564408726113485,3
-0.3493393384734713,-0.30599532917560013,-0.36656575594956786,46.302853828455895,0.8344765387286519,3
-0.22264542062103598,0.8657353802532661,-0.48368366468304336,21.011772204926263,0.718993010780983,3
-0.4573019364522082,0.8452902792071442,-0.9245053660651332,29.09663827582856,0.7866297851321415,3
0.6574750183038587,0.004743639944190914,0.16639032376609197,25.524829587417187,0.872806952588122,3
-0.28649334661282144,-0.34423201196348296,-0.5400771691979316,34.38465037629551,0.8865159493528586,3
-0.4381309806252385,0.4742648279132782,-0.7037321559672338,26.001085401459335,0.9599470904094822,3
0.08539216631649693,-0.9265741130338667,0.3076599276553553,61.514601597173716,0.7134213944478114,1
-0.7181515500504747,-0.050461987912697515,0.3624185156430977,21.742394132553162,0.6467054550096976,3
0.6043939615080793,-0.32735321145933294,0.5043097845153319,57.064430037499875,0.819832133394921,1
-0.8508987126404584,0.8410717702051094,0.0071537926771829685,28.442469849534454,0.7078639496397652,3
0.9737738732010346,-0.9759939454546349,0.7881092104077732,76.70968743067382,0.797299226974489,3
0.5444895385933148,0.10562975143669817,0.8726855067964556,75.98564438659125,0.7099928992279751,3
-0.6025686369316552,0.481327162133252,0.6147418795849788,33.53018615125776,0.5764978933390872,3
-0.9889557657527952,-0.029964024951917523,0.27118696401637443,56.86527789338177,0.7347133758294793,1
0.6309228569096683,-0.8291939396745567,-0.39255809281762266,21.680319168347506,0.8454589109705164,3
0.41371468769523423,0.9449227800558044,0.9658898432404424,75.90731258307045,0.8996419038338249,3
0.4580143360819746,0.03602086275219585,-0.4517276656161233,51.379238491502576,0.7466631383982734,1
0.5425406933718915,0.22837248863802273,-0.5946861560191379,22.59338908506674,0.5826189451052004,3
-0.8519106965318193,-0.5267804345849854,-0.11569177242683448,40.54999958048825,0.7073438548247157,3
-0.2830685429114548,-0.03300382978639238,-0.8863188585752231,24.61096771167405,0.8931469644208492,3
-0.7682618809497406,-0.14170101608335628,0.9569889293435816,43.576666362401596,0.7064296353085364,3
0.726206851751187,-0.8502083159960325,0.17686711283284962,60.19558052967938,0.8482653968021112,1
0.24659625365511584,-0.7876792929050656,0.1139041833283505,48.193394482486376,0.7536068408390448,3
-0.3382039502947016,0.6749450392375491,0.3115925597994398,43.02333048316727,0.6206115625546984,3
-0.8728832994279527,-0.5203600955868195,-0.0059527044455867095,27.149422732427887,0.8980752540115371,3
-0.3780353565686756,-0.6100834570027389,-0.9358729658109168,34.696342741619375,0.5421067270353435,3
-0.3496333559465059,0.009822902500278508,0.22462257768079352,26.008597264301066,0.7624451413775752,0
0.45921235667612814,0.5374942627250259,0.4323477539128613,68.44992389939964,0.6044455171217025,3
0.27511494271042625,-0.8761069628420242,-0.1665018787518937,28.114389679083352,0.5335328142706879,3
0.7744254851526531,0.15361583927651168,0.5145911441423858,55.72240199293361,0.7514669685416244,1
-0.05557014967610141,-0.7615791143188533,-0.5459974013231588,40.56442481533075,0.7497810779674619,3
-0.7608115081233966,-0.9270778983487631,-0.557446817867632,33.55870307931101,0.8534504508378604,3
0.42648957444599,-0.8945120956755652,-0.6771660246248521,58.368106369526224,0.8723753465259525,1
0.5215700972337949,0.6683282164168827,-0.2560104804216763,47.42013856261644,0.8638957443464483,3
0.12255439513899247,-0.7640550327438769,0.6940240707781671,44.00872803707355,0.7047793664583775,3
0.541934359909122,-0.9096972711754161,0.6558241242981286,55.57112029353329,0.8158448936132813,1
-0.012408807271218514,-0.12420022571417544,-0.2343515840729924,49.47605770940004,0.7884726213219801,0
0.045465658763988115,0.6879869438840496,0.17823747196047313,38.209052513093646,0.7107808780584598,3
-0.14491796328290074,-0.47518324702139614,0.44163263294983124,53.5436772659151,0.7986063470929966,1
-0.9491617465118096,-0.15657476494816724,-0.517586450743954,60.169914593041675,0.9736239383531313,1
-0.7842171460133911,-0.9201549348724976,-0.6637178282105058,21.601589515211256,0.5964468718406887,3
-0.9371416286265315,-0.10184297173024826,0.944191986424622,47.95230373446052,0.9528860478927632,3
0.2728208225275608,0.15522616127426736,0.23511462641923697,23.460997075012628,0.5267277569915991,0
-0.37128803784734665,0.14181410750428958,0.9628314436673278,31.184324844086664,0.6541946064508304,3
0.01714138232940554,-0.3351466156512697,-0.3244880257355418,53.63052404467838,0.6440726243057642,3
0.815132947852186,-0.36893363867372897,0.406063399948263,71.97133491593485,0.8131825539404529,3
-0.5014155417022501,-0.7867527621268042,-0.5547927269175246,72.96834075130909,0.5656124758886452,3
-0.17923415392874054,-0.26640335870746323,-0.47759965745217414,24.196640608317878,0.9411738059198769,3
0.5111022770860973,-0.8010106622540707,0.023804242539247955,45.14630517720239,0.9142757042325207,3
-0.5424036690167551,0.5331918894241032,-0.36076374898385755,54.98038898027308,0.8260329098426389,1
-0.846040180342414,0.9325485954963717,-0.6647568723188311,28.824194273020606,0.7292069158960989,3
-0.42049709417246395,0.9401489133334138,-0.474238596021348,65.9259330046863,0.9664780210710392,3
-0.6775574254919912,0.7301421987507877,-0.9285032110682707,64.65411550623432,0.915373277360278,1
0.8593953046851461,0.20158429867923822,0.4088472429549732,74.20046082240768,0.7496575740406224,3
0.6162407591288339,0.40173139448775985,-0.015766685828276783,20.50916072500658,0.8509366772271556,3
0.26680751302084693,-0.42958839463917187,-0.8115138671909488,33.00105463934016,0.7834649760898422,3
0.7429211803754354,0.2615408403452413,-0.6566120137430176,69.6312028547193,0.7939711191941323,3
0.6073441537982289,-0.08870090112024509,-0.794930923774712,60.234803049616126,0.6654880347187356,1
-0.6268598822279283,-0.035965320446134985,0.22518561655175295,73.66339122190945,0.7310423023124484,3
0.7851179969799555,0.5155531207503159,-0.8115792727750124,23.430779271815993,0.5390607153948721,3
0.07868448383130144,-0.4361632888054967,0.5085646660704322,55.81783794298657,0.6786743458322962,1
0.6148803103281251,-0.36392077661096023,-0.9589781613592177,54.14279449362045,0.847914257681076,1
0.7921825998469865,0.8492835822572733,-0.5012484240082158,22.140464981631943,0.9766080152530932,3
-0.36399305005627225,-0.8875514102980555,0.7813333517838144,50.81132461474901,0.9815320563815102,1
-0.7798961509446465,-0.028731403173319237,0.43706263624449204,56.57121867859546,0.7778614345624458,1
-0.5441296749161166,0.8256016008157234,-0.8540633341486246,31.477590452126435,0.803311125904791,3
-0.14578442274748737,0.220726015636314,0.6422522089703595,36.39977498747977,0.5928605927504838,3
0.6360295318449862,0.09281414842426416,-0.01392975691959042,58.42084077786422,0.8476540540467654,1
0.7214611665126869,-0.5005116415412896,0.6935660543376585,48.0980568559975,0.5353293963371931,3
-0.9860957389376186,-0.31344902187110346,0.2014795489007868,71.48081945409962,0.6423428428997222,3
0.021494605155131463,0.7040968316093859,0.36366606406571744,40.5429059605513,0.8341816736427211,3
-0.16517799370244202,0.11843626353691628,0.9870031207914163,35.99957950329207,0.6551550657717446,3
-0.5557843790585395,0.02948438751355975,-0.5353289081519637,79.09195642069056,0.5249234370572271,3
-0.7602692653326344,-0.8008405729199422,0.2478911495227767,74.668146207805,0.9159352046754818,3
-0.3247696571927441,-0.9679436870897538,-0.07935721988520328,21.739564699938793,0.6551650035672816,3
0.8858194078250383,0.9273703773740982,-0.9210960941546171,66.24371691839394,0.5315526124293393,3
-0.35359413595848954,-0.2460276654263167,-0.9710587169942699,26.620086429512178,0.5373940822514326,3
0.037581243486732197,0.20642612419900863,-0.7615428443642827,21.649111689762258,0.6258793993943768,3
0.4060379177903557,-0.84056985362543,0.29818348107709625,36.421730957980934,0.5890079736107632,3
-0.27274079524141204,0.3662285714460931,0.1343261758267844,36.16075274366626,0.8871500588900754,0
0.9435641654419213,0.8651334174119218,0.10685912232745487,69.15912574081787,0.6608420233335173,3
0.9248945898842225,0.15133050599483933,-0.9362864749434798,62.64003475657011,0.9023478925199162,1
-0.4964354083492717,-0.7477693552491789,-0.061394007279985896,78.89656563992085,0.5869229989115764,3
-0.005502988215229099,0.16344305494695344,0.8492456356850571,62.69077401870911,0.746439589772042,1
-0.3982433803664607,0.5326944262093047,-0.2048162613787068,45.095333195362876,0.8440185667765644,3
-0.4303190112450648,-0.18716692685196268,0.24984493957691267,61.935659656713014,0.8259954269329275,1
-0.9262261052909344,0.7596754958829357,0.5596373512462871,79.96754403118413,0.8005647049651343,3
0.2191286679597937,0.29736590671472896,0.5678505582837752,62.608512953751685,0.962410800965585,1
0.005358046457722976,0.798497836578405,0.038560164790542695,65.70088135881909,0.6142625738533722,3
-0.8970424975000213,0.24701062249467443,0.7159038908046726,76.30190091141557,0.7468596022310527,3
-0.44270707152677713,-0.7374240559903515,-0.21724381327250608,26.819075678701,0.9419962750362043,3
0.8165317719333074,-0.38061657778962177,0.7773864295695967,62.28705760686361,0.5389468827975785,1
-0.5208762186660552,-0.5964101034950862,-0.5195456672089094,71.04835747804694,0.5279441341265376,3
-0.7102102558175538,0.8176529954337246,-0.4395671860188579,77.26271601325358,0.6166511437791458,3
-0.02109447944487397,0.5208001345749653,-0.8937587516019978,32.65815738270196,0.8165106097690092,3
0.9713009082212014,0.3527967378200121,0.5911636730845657,50.235740463454654,0.6299398132249034,1
-0.5158894569769992,-0.39806736073675664,-0.16588952753458885,60.83329085866891,0.5951199419043995,1
0.3442710948117571,-0.631910455899573,-0.5417667721772019,34.848063770080245,0.729401157679146,3
0.5232392306574352,0.5129021759778236,-0.5364194447668407,56.02837179501644,0.8067990343847058,1
-0.5247249120152007,-0.051684108241840665,0.8027998824584663,35.45472694987996,0.6242788535083702,3
0.45643269722371915,-0.5484208956987418,0.6678332009220738,40.00742123189883,0.650345593361871,3
-0.26443373456149355,0.23324395633055017,0.10706177071436662,46.4911217906519,0.8067796524057569,0
0.26461166118715895,-0.919332295723096,0.23222160083144217,51.751405924794014,0.9728692109947263,1
0.2670594215217894,-0.347659491743493,-0.05134885889941798,46.961952297509036,0.8373708637190441,0
0.07154936814951696,-0.06288601081773071,-0.21666691424238227,49.591731187275755,0.89145207179228,0
-0.8194204598911834,-0.7040833317811883,0.830953762436663,37.915325377297556,0.6834050473777344,3
0.6706049911784759,0.9693089551816791,-0.7487745929593959,29.537905641357835,0.636127179692233,3
-0.35843987005652833,-0.5818052708207715,-0.1631064205675441,22.840998639610365,0.7271338716013113,3
-0.6269629792002915,-0.7392937399134689,-0.3108761840242493,31.758723349500062,0.9035664143558368,3
-0.9184497168904722,-0.5929302522262072,-0.0036985594977032576,54.916618490346984,0.7281498208952779,1
0.18178588637648363,0.5381222663194485,-0.08473625090964987,67.16692686818794,0.9233627043949305,3
0.35512872368456483,-0.1489886814563144,0.03777906330216285,30.15485584657367,0.9943859903475636,0
-0.9668243421442877,0.13083187950507602,-0.7201620455460118,26.51332146635891,0.5360133328651682,3
0.024186116598561958,-0.9579816860272785,0.026283003026554175,64.95742163295502,0.5227050780418518,1
-0.5470084496041241,-0.9311373828533709,-0.5151623722255783,38.30949983223738,0.574794851456681,3
0.2903455808188997,-0.10834890034596767,-0.6313373020236175,77.08996635364115,0.6921848378671731,3
-0.6512671419900171,0.633310486403247,-0.8703315624276176,62.85907823662238,0.5655211045727162,1
0.3818754762049319,0.7704777574151305,0.5253051175122818,39.605362834581854,0.935332238809378,3
-0.22652930739892518,-0.8265868648087196,-0.14511615828688007,37.372564867622295,0.5115731255135318,3
0.873459977473469,0.07672620420204557,0.2532873666235167,51.42190317627855,0.6578963581679113,1
-0.7249581117080135,0.826459372558541,0.4551866866094867,24.748680096692567,0.5923473147471027,3
-0.317867297899483,-0.22405449120422727,0.358633330627107,27.06059075871794,0.9657696650787662,3
-0.7730529575188219,0.6591316628567372,-0.05899856182063545,30.551472878971552,0.834740502445014,3
0.8493872365571256,-0.7326086912011276,-0.22420294209654035,66.48341559827361,0.9560151282256872,3
0.754678706761962,0.8707889793355974,-0.24808018071867255,50.83144155614735,0.9861643551551966,1
-0.4841167445696888,0.5028466350626053,0.2800975938601127,20.634027366466576,0.7485491218386846,3
0.3199680920683581,0.8826687855738033,-0.010411290116253191,60.41099164832654,0.6171595540240131,1
0.6344444004024317,0.35323446710501294,0.6982644959770212,45.421410719629826,0.5968643930982946,3
0.11040162319892466,-0.273192136001146,0.7494039686534242,50.65114189782788,0.6114594308429202,1
0.05930115671201297,0.8763623450494449,-0.6588792439869631,32.846974604776136,0.8542966538110015,3
-0.5162954181990966,-0.44886644738164305,-0.7275326969085487,53.10693370364622,0.5202228640615003,1
-0.8137944643882016,-0.33565495587653493,0.260801852071999,78.74919438508931,0.5256805365163575,3
0.7944315159066535,0.40161683600348064,-0.39754850387544116,24.406681460345688,0.8040714711915751,3
0.8008361143266609,0.5306325990507725,-0.9628585624698023,37.03504397986584,0.8210285733687033,3
0.2662029145465359,0.8588069676983077,0.7772853387259102,34.57985557164979,0.8326314621612301,3
-0.32194041790259864,-0.590395181887581,-0.5461984655123835,34.91295864507077,0.6859402522942957,3
-0.3015808507746782,0.5959960704384479,0.8585613033716182,42.72238145392264,0.9029724443570766,3
0.45191135774047875,0.4770921067939269,0.4348689017565073,69.08658708465005,0.7668122938633088,3
0.7942205199051542,-0.8724108874928043,0.5253069798229686,74.77152139786324,0.5527328150047097,3
0.7741728485302346,-0.2255537175795861,-0.5970770084136792,32.1329052475384,0.8985496535336726,3
0.5597510917152477,-0.4344690858798028,-0.5316111487663742,52.57699627688677,0.9765338931352292,1
0.2840632923085755,-0.3910191512919392,0.04253550764813152,58.213938329928816,0.5300181565011793,3
-0.8317200700099023,0.9658937591094017,-0.6558002947002757,51.30964846183069,0.6956756693502899,1
-0.6767425718107725,0.2855548269598558,-0.38913661463393545,46.044583651815174,0.7437580224173739,3
0.7971083770541585,0.43535231558699916,-0.35707504410439106,31.51853035155427,0.5732353800391585,3
0.21285811931917986,0.9532352746300183,-0.6807401334944718,49.29316155195431,0.9338544738914385,3
-0.9816058967667407,-0.24559643508472262,-0.5896343332096785,44.07288966267973,0.642074822445022,3
-0.7970569142679358,0.6036803369056118,0.5771036840165131,67.73380175013618,0.89150426996908,3
0.3270035382161116,-0.13093807339100927,-0.6656082909054633,65.81626154977971,0.835497241014158,3
-0.9898768323075626,0.7390673436299595,-0.943085216312155,28.039920872340243,0.7990229112335117,3
-0.6783838971650027,-0.6386849173773936,0.25870988525787686,25.311143153784055,0.5960714243482772,3
0.09746757873317224,0.8953723541285592,0.9519662387848999,74.48923659365018,0.6103517602754529,3
0.3837903953853865,-0.5624565831782407,-0.33757237075375723,52.13050333786986,0.5236742023732847,1
0.30392251900520106,-0.34755898603813695,-0.7626885936074954,71.46805623695545,0.6203562148911332,3
-0.5514613810788804,0.512384468213561,0.14077465073506157,23.48906723398407,0.672721804730257,3
0.4243584426950717,-0.2124897168691866,0.8127084221912924,51.590936991297816,0.9165726519312127,1
-0.5255018250063999,0.2164227535328933,0.5681235596569576,52.36559087457418,0.6831963333574027,1
-0.34920060368146455,-0.110852997861143,0.245031736825432,71.642121952529,0.8773108913828032,2
0.4929828102360483,0.48473987417956366,-0.36988700678480124,25.85659989378245,0.7197211406477437,3
0.2992657980944293,-0.5433374952627783,0.08376034655243991,34.42673382055456,0.8924341559969442,3
0.6984468209883559,-0.883084025526246,-0.8175103173914893,44.392298833220785,0.9881358002185199,3
0.31522578460068673,-0.4001412050538675,0.3578908485613399,71.95048852519653,0.6199207790287901,3
0.13661720667094324,-0.051382670263139474,0.4501920377953017,76.33299890423402,0.9311708059819381,2
-0.812650464343815,-0.6639598956146429,0.9300632458198377,79.56347717561768,0.8109120431528873,3
-0.26456839388113296,-0.29040542068722264,-0.4792052825098567,77.55160918751129,0.9086471307943274,3
-0.4695952646365491,-0.20003396341286295,-0.9630871619139547,20.356505350661266,0.8257929511339026,3
-0.5120207132418328,-0.8852163126234529,0.09121692885430122,22.86250048723232,0.7119747536370751,3
0.9460211095048912,0.16661449636840908,0.4135810087936289,28.85640914945532,0.6140374697208952,3
-0.2138045506664792,0.768686855942575,0.580814951765976,40.93172580621639,0.5350176126655826,3
0.7840931103542266,-0.6965141740938952,-0.6125221339503788,69.79508185921753,0.7677591822303584,3
0.2622772519945258,0.19561602680302803,-0.4764942619259527,73.55937172012884,0.9951630472634327,3
0.5896226070832968,0.3294784098216925,0.025181850534592654,31.210064377674982,0.8690209025071032,3
0.005274186210384224,-0.16133063916142332,-0.3387983800599963,57.17984909718252,0.6636727706995083,3
0.15380776925271822,0.40219517472853994,0.7210229731748901,75.04171910391659,0.9136024000433676,3
-0.0149646123622722,-0.17853691301797592,-0.05247969252255946,47.82390415587925,0.8844920000882033,0
-0.609514024403911,0.009274575954869801,0.5991572882040059,26.212614317167038,0.6408178966767284,3
0.44490423052301065,-0.985293910891146,0.1612395209647075,47.46881900507749,0.5071537448971173,3
-0.4384552751182884,0.3834402282693776,0.546180283234224,42.54769413728343,0.5590813192669748,3
-0.9513680671370923,0.32268535788944885,-0.3346540269393523,54.65947976396042,0.9386530951560288,1
0.29094459181433563,-0.9231982453473109,0.6628332438606224,46.31952106442622,0.9182815176524359,3
-0.6457786411859021,-0.26349978520973383,-0.45085536889795685,21.040755611223076,0.6476045004391813,3
0.8809171687058286,0.9580636815833348,0.0921976160065816,79.63986400482027,0.6425977131422103,3
0.9078571540051747,-0.1585268748627664,-0.5719857736522516,52.61241426383425,0.8964324935512356,1
0.829728780440897,0.0038908102636834307,-0.04894695674761329,48.41784532907657,0.968868734947711,3
-0.2596825994891112,0.8198603163194371,-0.3636495809825937,77.27704229024324,0.8895686283988,3
-0.9690867669422651,0.4345237517315128,-0.4665931387255715,29.351622055224627,0.8027893385153808,3
0.8566371251754508,0.16414026224844713,0.933970036056075,31.354256152714896,0.6213356751659023,3
-0.14363170336537134,0.595609362682145,-0.6798517890265388,68.48088494376701,0.7628739570476304,3
0.9333096380873391,0.7287325329119465,0.5746516749147905,35.64986480150053,0.6167559292966323,3
0.9272399541785057,-0.08622385652546627,0.9683299189664298,67.95362637749162,0.9040057100483868,3
0.7060189109347201,-0.049783270136329216,-0.9601970325198443,36.29200897451015,0.6934805397588686,3
-0.4111022158608286,-0.22789812869632842,0.39805482808419,21.991257813500088,0.9168486084970131,3
-0.22980454279614948,0.9334122800369211,-0.49417638888742577,51.02088343320296,0.6908046089913626,1
0.7022733430337138,0.3943325085807008,-0.9190243513433911,31.801186047611683,0.9120747025999456,3
-0.36615598968744467,-0.8335538675838554,-0.1942208420867384,65.47077757594826,0.666658907582621,3
-0.661014506627815,0.7259192466260369,0.87043562034175,58.47197799392889,0.7200663523088349,1
0.11360252491670031,-0.03888011832746385,-0.9764698112660046,75.41616007867506,0.8077442096713288,3
0.8723095483215619,-0.8624921871550251,0.17577138385956337,66.97930143594415,0.5351438070149593,3
0.392059593349946,0.0994345103266221,0.0027929571906486483,30.84655729044361,0.9741035309077322,0
0.14012234017872993,-0.16567144204859585,0.746768328742095,68.00949419988778,0.7868028930619015,3
-0.8056470124584629,0.7554988097252497,-0.8319965709587487,58.504222688841395,0.7539100073454011,1
0.23001445339833948,-0.5920107927812253,0.3630520597733007,60.137098505637496,0.919696985559956,1
0.9801077002085266,0.6529292189843658,0.3602193968665546,69.93577315820892,0.9328813649484138,3
-0.7198319695269519,0.11537738237090545,0.3381600337245665,54.42944415133641,0.761130202264508,1
0.036659304727473474,-0.8907793935730619,0.8846689898700739,47.96021086118077,0.9636311628968186,3
0.7547461438559109,0.9436906026509693,0.6461750580137609,58.198462121523676,0.5323688830382403,1
0.4815372355084089,0.025230488206399837,-0.916054547512988,37.877445737501546,0.5566128961256087,3
0.39403148199053595,-0.418246291536835,-0.057834298590973665,30.955827865225956,0.79839411500722,3
0.40496816797421853,-0.06118631602148383,-0.20409388759733305,56.99527028427478,0.6770329308967918,3
-0.28101769756048967,0.715715567034978,-0.3797055578183959,34.030902145128664,0.7321125830945994,3
-0.4128163114710133,-0.390193751229873,-0.09732654969180543,24.794906560796406,0.6640396089485833,3
0.6187223109570272,-0.6146472070265994,-0.2316116301480451,20.033251075115235,0.7023626557224678,3
0.6202267893583615,-0.7418575061382371,-0.13533220024266934,56.49916408400403,0.9113231735731497,1
0.7341446371602074,-0.4042812032195775,0.958523731217285,41.72892700881421,0.7967380999271523,3
0.8264811051129426,0.5600961740800869,-0.8227340505008385,65.13865824040735,0.9986722746417491,3
0.022684797721875594,-0.056747269609476625,0.8444617396774596,42.51058389878615,0.8934395989104815,3
0.0030325893743992083,-0.54503679261292,-0.0395265730579466,49.1602068942936,0.6368331270509133,3
0.5965903579335503,-0.6676300007805016,0.24748449099908232,44.425098368923095,0.6321725588633481,3
0.2999278615555303,-0.3345410469792418,0.6603659332353877,59.03448746656077,0.6679491350585036,1
0.4039337545154067,0.8798487457714177,-0.2790739417014889,41.368349720898095,0.9216297403238713,3
0.5915853388722021,-0.31394657481995125,-0.13915618382406625,77.82605899653853,0.5136438253252829,3
0.7800106836351326,0.9762481519092707,-0.18096303944257208,76.16881919591181,0.6150906394356288,3
-0.3240096862969284,-0.029539088469287655,-0.2505379549284803,70.88167415943688,0.9524592101721334,2
-0.24883409472011198,-0.6416721634196982,0.8510586432937899,75.21801623436488,0.819948218041626,3
-0.812036120318262,0.7822801835870188,0.6578597823860242,46.94838130756346,0.6134235477505282,3
0.15656028199234795,-0.07928925373034623,-0.7820000202740478,52.18582380736953,0.6095724841162902,1
-0.9281154524065158,0.41934268700904886,-0.7837532950458079,64.52555555349467,0.9313090508797153,1
-0.06880396373507969,0.9674231664183035,-0.14426097029401763,61.768755496312465,0.9468787541385233,1
0.08528926941515325,-0.899649299360052,-0.8026852465343819,73.44071573632826,0.6280655454810576,3
-0.4269174957434312,-0.8066108804248657,0.23818619054223933,62.97986163540172,0.7102551790382661,1
0.1816665211380215,0.44091348292551236,-0.7126167854765322,79.87308249370764,0.9172978693141586,3
-0.9389995001219011,-0.436349993409056,0.04474652793360212,40.91034798989546,0.8855037193049426,3
-0.9253036225015712,-0.6313972060998019,-0.9855601059925645,69.97986453436508,0.9069580532830422,3
0.6452011213193165,-0.921276240360541,-0.36680730317470656,61.85808936995985,0.7591990953939844,1
-0.2796187171774742,-0.9563065760275964,0.35438144734531085,61.483186712901116,0.9557745241525866,1
-0.7458789746962304,0.5489712062395817,-0.03192211954430313,39.55013569069993,0.6629757719772176,3
0.04448652010960874,-0.7311331452609,0.9565389719979762,67.13610754538135,0.578336067173759,3
0.5399871061972217,-0.06455876805769822,0.7482075921324216,74.02256134085596,0.8543661662824324,3
-0.5683579450063136,0.21179363035896603,-0.2818584419136976,33.11290769123378,0.7696772080034482,3
0.2457809516380005,-0.1432963988623075,-0.9090269170554508,57.529810227002244,0.9272928844047406,1
-0.829305070012464,-0.9457866953275338,0.6912526002300377,43.528089746166515,0.5405796245623575,3
-0.8966365576627846,0.5670030051758177,0.8224686206293428,79.37288715769262,0.9218462017190334,3
0.06270926313629599,-0.978973550916693,0.6412547868380736,48.72996894990089,0.646647326604411,3
0.08127024322021303,0.523779788754968,-0.7441001181604703,33.69921042781656,0.8274278335840914,3
0.2748598029964131,0.7866089875762454,0.9958302688245755,42.911457513309955,0.5200643945391279,3
0.4521826674453231,-0.13432015788565543,-0.48283155689445234,59.23030338899758,0.8047906481518003,1
0.9517041589250692,0.07108494619559647,0.44840982561674014,24.565362280974576,0.8586358445936679,3
0.03260069660239062,-0.046033214764692465,0.8160697526714431,56.21611521327426,0.6843751072528101,1
-0.35408705411750807,-0.2215827627531224,-0.5286257713385811,75.87348555073388,0.6077053526310701,3
0.5903723895374073,0.7748490707407205,0.8165171093541321,71.02176725947103,0.7688153383017725,3
-0.45833549747585156,0.787867021339981,-0.3810368416102661,24.060412199479003,0.9165954022178233,3
-0.12205715858872779,-0.32836727071693095,0.9528264447681123,79.60339272434409,0.6617736791483254,3
-0.8430872373154681,0.23013950802939598,-0.4374799592390508,61.92361542223275,0.6262346487606398,1
-0.949298513169085,0.8538151242917282,0.9068716495156703,29.73684945884142,0.6394676543188438,3
0.9252968293558501,0.9241169978827031,-0.8929106982146502,20.74496535016541,0.9745660764583322,3
0.6719602410244117,0.017918080844095075,0.41854402333962604,30.27695817752908,0.6796384578822798,3
0.39194841218739596,-0.09435038943134644,0.0642222676740074,70.29055524114432,0.5018021199441436,3
-0.18209411117146024,-0.44261136814294844,-0.044245845754538715,21.298359496709825,0.8908406039798098,0
-0.6534113598583084,0.91774374638082,-0.55301137148832,33.988838217085195,0.8496373976676951,3
-0.6871259146578279,-0.7143713910542653,0.4111915795529839,65.43833572009252,0.5642841323014844,3
-0.49951420367080934,0.15965915209545,-0.6183810171073858,55.16663215388811,0.9924521245674562,1
0.09845332941224094,-0.43489946496272225,0.10568359196953647,66.9641426216115,0.8040311426525556,2
0.42919184540012467,-0.44198341930440677,-0.4935092739194984,64.76903022960727,0.7503897454703008,1
0.32039475343546253,-0.19006282524762308,0.9112427595627122,23.036083227308282,0.6911096338114455,3
-0.4401322061081143,0.9975858716313091,-0.9427376123286944,73.55068514564908,0.9493363777818189,3
0.9097305613263882,-0.8900673863203559,-0.6005434397775269,33.62191005693612,0.6219817407092816,3
0.475793833391537,0.1570836364070629,-0.5153787872251046,53.20354641378582,0.6428844501099509,1
0.10870810502280137,-0.8348556839294456,-0.17186434846436716,58.65728939166673,0.5612054033432834,1
0.22344149246870448,-0.6909583400189621,-0.5345395162598929,30.117692653105724,0.8795595477921301,3
-0.16079987514442018,-0.12087411645420265,-0.01730181946242948,78.57387540205846,0.7977746402029267,3
-0.5045380209976851,0.020920262692882607,0.744931046517078,49.289357365238544,0.8045330846272492,3
-0.2880546426974768,-0.482415183270952,0.42412684281834157,23.458561735843606,0.6092352155097318,3
0.5156922209287382,-0.36708573825116764,0.1599239610702221,76.23572268667041,0.8255841945635419,3
-0.9712130227404883,-0.8260659594881339,-0.8219936440346407,55.17607059159609,0.882729223623432,1
-0.7678547189861675,-0.39356043231149895,0.3879842167785512,61.95159187888258,0.6789442653628446,1
-0.9079947159564945,0.9331168787610882,-0.6671714313781203,51.51054739605345,0.9006735719808561,1
-0.9185423953620597,0.8894147633449634,0.572734771923396,70.08427728661806,0.6743952942660105,3
0.7109211680220144,-0.33024341972603,-0.4998864829796936,21.988007731592653,0.8790692307546438,3
0.40731571876004735,0.14170787255752315,-0.1659025433581982,36.10270191662887,0.5168650537288595,0
-0.05165234182534961,0.8191907822218887,-0.29905959536414417,48.178901384161534,0.7755823007368263,3
-0.804331678697997,-0.9876323547182067,0.7176278293497136,24.596216978822603,0.9847632803199433,3
-0.016768249766335286,0.6213671406751837,-0.7469110825731837,62.35440015959949,0.9906223003411954,1
-0.05305645843886864,0.896739105577838,0.1312897647695772,43.61980484333844,0.6408762891708704,3
-0.6535962601799696,-0.8173485313328859,-0.7158767811138755,36.36007941608864,0.7206995455401777,3
-0.13229670152405393,-0.6771046279341579,0.4095916722643733,20.202730808504736,0.5314889539933165,3
-0.20299053120525312,0.9214926055427108,0.8101562555889623,63.18981870499722,0.9366706538022999,1
0.23170019610443293,0.0750802872806926,-0.13078469226549316,70.0285585323717,0.7842860765701071,3
0.2701873017352876,-0.9716067310565526,-0.02381547947004825,43.70243214088991,0.6925503394702586,3
-0.909391980455911,-0.4847360024729417,0.8548456729655245,53.85307862200193,0.5563852792445765,1
-0.25077477074705756,-0.10011265146228077,0.04198277729871425,33.66119755577591,0.9733836427484446,0
0.25171983142847276,0.3858178220495354,-0.024803123900878132,57.331858776807984,0.7651095239104968,3
0.006272517160175406,0.46632075627359915,0.1566582054086083,20.728247498912033,0.6414639645414519,0
0.7129796823766446,0.9908430258509122,0.37845947272590386,49.3186338259255,0.6751075650657548,3
0.31738726323789,-0.42497760123248196,-0.7862332498259372,58.65232891044153,0.6353485904610738,1
-0.6741311458371406,0.07644020373695048,0.6422210554830321,75.09150639378404,0.8009049044284904,3
-0.8588625051991403,0.06664709571921001,-0.1289899450934815,42.880149027337055,0.9649817878902549,3
0.2848385564126312,-0.188709481105525,-0.8553029802050289,65.91141217886178,0.9283469016632822,3
-0.9469773789167564,-0.6616762123151596,0.5723653383964262,55.861221796610046,0.7301904377129887,1
0.1715511625469266,0.9549131263676851,-0.24610005662745582,75.62072677550483,0.913249681150504,3
0.8804604828499152,0.7066343733331721,-0.7992650098098921,43.90266053956584,0.711552740638165,3
0.1509483557517579,-0.0033339434115255973,0.2675580790865011,39.145720392379275,0.6261535703793191,0
-0.22366014758695618,0.20649084536805962,0.7602627068672834,73.22851992164863,0.9917075576332139,3
0.28657643688470635,-0.5454778928806754,0.7755070188279727,22.954664084497345,0.651943783985411,3
-0.08349421901696674,0.08757414078349379,0.9153269496179464,28.183123576020606,0.6618621154934542,3
0.09123357863186987,0.38994026624295164,0.735410919533376,24.944266075042666,0.9948464338932611,3
0.8829296175530503,0.030334056773177576,-0.9957181613090496,70.58659739458416,0.5669637465828274,3
-0.2277947243984515,0.9805703411698825,-0.23951766717321954,20.636445402219163,0.8802669940048475,3
0.9223811276478284,0.22268331249545237,0.6370851598110061,71.69942932982289,0.9679063792413632,3
0.8107012839121275,-0.2580525748156619,-0.2674939880030516,47.07606772227601,0.7558974971377093,3
-0.6084177304214071,0.5443040552316762,0.20309701275941228,20.241516731238246,0.5012608808514101,3
-0.8612773982496691,-0.6590749768367159,0.21263389474906402,44.098710632722515,0.6875294720565531,3
-0.7984439972451467,-0.23096837258746694,-0.2699493919223539,31.208050462702133,0.5557844961924135,3
-0.9635563486969005,-0.3060820992448283,0.8089478545625752,57.46402924832978,0.7080938304668478,1
-0.8111140784881432,-0.13638580978444548,0.006456690772235207,60.76152739529879,0.8950133808211423,1
0.3660135468327137,0.5635596518574526,-0.07043158812499839,49.25165422429999,0.7193557744419002,3
-0.857622703079542,-0.031653935673185085,0.9950274913237918,22.431171526380197,0.7159625606729613,3
-0.3620487394124774,0.5880289005319255,-0.01299927185476668,59.36772826203212,0.7783947384594233,1
0.6897506219389091,0.1529778062797318,-0.6432034961428379,70.52232701633127,0.79084529237384,3
-0.9534561285283483,-0.3158611306848893,0.02613884572687608,63.21945663958409,0.9281481543994856,1
0.6289369651778716,0.6199574873669449,0.6280334710398601,69.79747513731911,0.6541777196144758,3
-0.43629045045320014,-0.5234206588938168,0.5537206537965629,32.03057141305325,0.910835632184008,3
-0.7636703447566875,-0.551234040400409,0.577163530216942,73.33327637938896,0.7829668743460236,3
0.3934743307283013,0.009005848109671533,0.41604756799582354,39.33160703887776,0.6502647748585735,3
0.257885693559768,-0.47830150807582217,-0.49156434186662357,20.804288855119463,0.6475630220030386,3
0.7549440270541059,-0.9818259300975674,0.7241681716804629,70.60349877974424,0.6805687585528623,3
0.47014208760777154,0.29659505459760305,0.7868869307525301,76.5092761378836,0.8113466213099878,3
0.6069618607696972,0.022187642944796027,-0.6116946067629019,59.333491845040925,0.6154058656799746,1
-0.43593085485738703,-0.10896437101367762,-0.7390887268972122,33.88619782780548,0.9601667808361337,3
-0.6451209124405544,0.9339370292366307,0.9512099371782241,35.10466785695182,0.7874562920889502,3
0.5012295032817167,0.14239836792582738,0.7366479273007358,47.99557240613717,0.9600078884980034,3
0.613669478534528,0.726863155578769,0.7864722944198934,73.86986477608517,0.5232021792895774,3
0.9810102840013466,-0.7210995275896797,0.7727527692487903,28.975859368853502,0.6713056852307366,3
-0.17476464617714704,0.13841292625885537,0.08337364806745673,69.55842017500922,0.5114038303438115,3
-0.25596382841443366,0.7359592534618058,0.2928034733315994,37.47816852230902,0.6361259075489849,3
0.5528259214839937,0.166211514559796,0.09072570426728332,68.51517016574587,0.9310032361342941,3
-0.3183929194939643,0.43602835625400305,-0.8975873016193419,75.21627185609232,0.5183048579211005,3
0.8615146512071294,-0.25591286437558525,0.4910061707055453,45.64963231965921,0.7180735499578724,3
0.7168255036860236,-0.8151009659258668,0.010664066671760564,41.90303924633185,0.558783535236614,3
-0.1420119452499633,-0.08419940974585716,0.29541814958045953,68.13327913827811,0.7084203296301839,3
0.5017421355829947,-0.21104121832228495,0.005279609951070574,51.76897294276364,0.9194257921321887,1
0.5090857481693647,0.7341203647578947,-0.016377355355088108,61.06694290779183,0.8115355167012596,1
-0.7937522623281348,-0.5120093952950555,-0.6564217810444664,57.369754217670774,0.8683781726657116,1
0.8051058133591333,0.9334684550702161,-0.4425725697177021,29.17333073868778,0.6745520577247905,3
0.01050474489571429,0.9162762396089923,-0.6822946161120884,70.6874216173737,0.9721988475050707,3
0.6529149322154832,-0.5047367138571226,-0.6086674087493151,31.746506684788173,0.85463104688975,3
-0.3599007979387765,-0.30389608904535903,0.9459547608406098,75.93692864424685,0.7108994096422654,3
0.791046456992401,0.79111148174777,-0.6937731084556031,35.03427748532887,0.7132324001135275,3
-0.22159664253167377,0.933244441792215,-0.4614591513895847,64.03285839642452,0.9593420889716489,1
-0.9783246970394033,-0.11312179432791192,0.18117931547716992,37.07932360961552,0.788202346717696,3
0.8107639528385273,-0.35800590871820437,0.2203571524732837,39.06712451521183,0.8531896049515209,3
-0.8174266464277329,0.05218802650308407,-0.6920517405123419,38.60011116693832,0.7085176122565854,3
-0.36137272481917027,0.3755384127314696,0.5874348515704246,64.873535241565,0.611846382382357,1
0.9001239341016098,-0.4530509692500404,0.57040573582565,53.40890707816359,0.8617796459972094,1
0.9012142938751122,0.4729463492381456,-0.5253645915922178,72.97714735084983,0.803911886070694,3
0.14687577624657222,-0.8966852857707179,-0.4226673946490791,38.44236315224269,0.7506714402123897,3
0.26367442433959853,-0.9014110144711671,0.8759757309189939,61.51955132340466,0.8120104699972319,1
-0.10310895604336046,-0.22742458970890955,0.6513428919589561,65.17691597978664,0.6041427930321168,3
-0.41357845660387094,-0.2930536158785588,0.39559406612504766,29.08892678179749,0.8969693532659782,3
-0.3426709092601681,-0.36873356926569545,-0.8355335569787989,44.03536143918867,0.974081402510153,3
0.34503691215407684,-0.01796047466217998,-0.16347183819484856,48.96904966102467,0.9455515720838514,0
0.50474905887536,-0.35853283537685754,0.11860374415365404,41.34124339366246,0.6607178726535086,3
0.5831580874516971,-0.6154841630638161,-0.6251774240324461,39.32675575814829,0.7030028866410379,3
0.5792362855891078,-0.38106090182279817,-0.10354683578355095,61.18519363985852,0.9042011498987805,1
-0.8175877939026193,0.9498085456204699,0.20205175497737993,32.95198385956931,0.7975585654123019,3
-0.01115939059483706,-0.1777731660103028,-0.34524663976920156,62.563444715067725,0.7739572218383246,3
-0.8848824799667114,-0.11057444628332846,0.5618896379009743,76.10265178344383,0.9633209837667226,3
0.09905776464747107,0.15308997990228002,0.6808991632776109,53.91185127066507,0.7680124804885253,1
-0.11693899725324597,0.9666815368284531,-0.3527810611318585,56.686054204368446,0.7574693397936549,1
0.7754083655165995,-0.516797447128474,0.6773143089849143,24.135962127445346,0.5210092956331798,3
-0.2981699748958426,0.36256422106486763,-0.79284686779397,71.8686142170697,0.5347084792950688,3
-0.7658659671447883,0.43196938708344823,0.6754581972453126,37.12686723199193,0.503710153940325,3
-0.7140166358943283,0.21464883358613185,-0.6944991366647668,56.903069931713894,0.9566221128918169,1
0.5230212634349445,-0.8228433207267118,-0.8341456949805479,78.74673018468815,0.7041933300088503,3
0.23643612663252211,0.35374455165515295,0.28355080888202244,55.73015603436847,0.7342806880667063,1
-0.7977546477544195,-0.871810577927649,-0.05612526848941135,63.482569247862656,0.922693473796231,1
-0.8317863877700051,0.19228529909979386,0.8157812008256655,46.71917709342512,0.804623155187889,3
0.40193826291824,0.4791623544434853,-0.2736216078183016,23.62195061090344,0.8047507981952906,3
-0.854473987271613,-0.5780602187600992,-0.42569547312474265,67.85596096938731,0.6482672146774062,3
0.6437201185807124,0.6832440150855481,0.0014698122883967102,22.09993047583914,0.9169541869622596,3
0.4124844543129924,-0.9392923889339915,-0.08810762846267739,62.03946973327125,0.5829149880197468,1
-0.8373024387162005,0.6876257273166122,-0.3111439075656235,21.375294388978215,0.526574796086474,3
-0.8303245718296162,-0.07934189871446984,0.38748259739665714,71.73831419460024,0.5958016787592662,3
0.9732791570023509,-0.564824120136711,0.5191236678278166,29.458162149978833,0.6338686093872823,3
-0.25145840848775936,-0.732443710012064,0.7059679380602732,50.85628972655307,0.6411555289271034,1
-0.25871570586621817,0.9066143351647451,0.9457132094206857,55.82904226898884,0.8352567993093838,1
0.6255991345150052,-0.8546688248376866,-0.46668761573499107,47.45272444240473,0.6089122936643218,3
0.8944971547677174,-0.6018131601281487,0.43218696497992304,40.44580936093323,0.8383291522474923,3
0.9720021276457418,-0.30435530513390807,-0.21148352900850953,48.0688577708583,0.5455660866168999,3
0.5067563705178832,0.24046969792224093,0.35416394390221617,38.684945232869524,0.5736012305489545,3
-0.24748082893816847,0.08960217055219677,-0.048036619301559336,46.28734082485179,0.7544107242454975,0
-0.8329985666026625,-0.748713015175372,0.9875462055358633,41.53477945988184,0.9609479012883213,3
0.5542938318548736,-0.42054403252357075,0.45780427158149983,53.972289410428715,0.9297837944055569,1
0.1168084994716101,-0.5224964578279518,0.904982600868649,34.27544973469901,0.9843767212214016,3
-0.15155598150604743,-0.5729142910193172,0.6699390989623715,79.31939329484075,0.8252395326390854,3
0.812708770189472,-0.1777113270400259,0.8058020223267421,50.05219720292993,0.8379074332080461,1
-0.7776050353876973,0.4080629051833138,0.6288383944293499,31.649724644870577,0.8125114994657461,3
-0.0147497914182817,-0.5650941355655281,-0.08168173924817723,48.624004974036346,0.8114094614290986,3
-0.9772927104651619,-0.2666422405940372,-0.49642309330623124,71.98490777148945,0.5735601725337923,3
-0.06267871601174746,-0.21816514631767547,-0.2593596490989556,21.308407587463737,0.7718694780819644,0
-0.8873934486363253,0.9529130588708203,-0.9595275347200991,60.77324714643733,0.6930339667258629,1
-0.7623641674638562,0.9093327137581377,0.04798633492933435,52.87806780763568,0.7212686078886468,1
-0.7649475064457902,0.6002751655041518,0.010115600540817393,30.17347966220813,0.7618002865296187,3
0.29842060423212713,-0.5166821583616297,0.05050092966097641,69.04858635829524,0.5641980859011257,3
0.4920897585308466,-0.8639253718166606,0.9480624499441277,42.13307734244034,0.6797438669260599,3
0.16673753019431925,-0.3661917245587505,0.8229080069096786,37.628121728930445,0.5317247804383018,3
0.9243450969490838,-0.4664109011323383,-0.676574443339784,69.68751151141406,0.9898340652111995,3
-0.2502588409525919,0.011851600292787756,-0.2622349568882216,58.311502771499875,0.5592640144100631,3
-0.42857582743627853,0.5554558201355861,-0.15208764107347617,73.89554502048946,0.6292623692724773,3
0.7371982563789206,0.716645877757716,-0.2789341642967045,57.793022220271965,0.9456464633516986,1
-0.5528083229610947,0.689728170821017,0.5969919272078261,64.44905947592692,0.7413550231195709,1
0.9264450788812226,-0.2806488775538645,0.04807533973517386,70.18675377557676,0.5678186007603152,3
-0.9756910506203673,0.3744686869213658,0.14419963394325008,23.284378154596215,0.6921152690196745,3
0.9397576534152781,-0.3743316049515599,0.706027117975851,66.56293753216282,0.5579339970956929,3
-0.9136801760988478,-0.8781889135296346,0.6118563068307172,56.82238891097461,0.6001079985422508,1
0.7822862273961422,0.4031305312058846,-0.7355769543594006,24.170467790911594,0.5260149234749225,3
0.055402218172599715,-0.9803448948604243,0.42782916816726857,50.514675312122904,0.7191137472745499,1
0.9859295922386007,-0.18163482508302287,-0.12912774219592893,24.94748467903723,0.9033180608626299,3
-0.8524068705292023,-0.34124146139584854,-0.41070219387499907,64.15683210339334,0.7929845893499478,1
0.10770856880264157,0.38675507703770484,-0.8999623581956273,52.790102833872986,0.8031726527423059,1
0.9386050712381979,0.5324909455207578,-0.025500879309098057,77.21441224473784,0.6002920150416202,3
0.046195688340297636,-0.39181072805743233,-0.28912663855093723,30.98812229430619,0.6719469216261833,0
0.25879727627052507,0.623254028889707,-0.49697392064719836,56.362007151222706,0.922621051920416,1
0.39149737796923434,-0.4121664789901325,0.3893434591939151,32.69492807422948,0.5439280921632572,3
-0.09091787046445354,-0.10734728002687755,0.538970774631174,56.8438990836439,0.9289653268342668,1
0.2551161601681269,0.4540370540282679,-0.5104209619411504,63.35898214165139,0.7418450131323928,1
0.16862862384620048,0.38584045844957715,-0.9011051266413055,63.33825975977231,0.9185737156625586,1
0.802316020981978,0.9747369446244001,0.69750540113047,68.9044394409566,0.6590032096972002,3
-0.9091072393170843,-0.5496779515681363,-0.9800805175913934,71.21301367749899,0.6694214757915105,3
-0.43807362081553936,0.3246358270791647,0.874224987842944,24.63630357603062,0.8758024341615713,3
0.9008229681531175,0.2193638165515548,0.2552397479654118,40.596029424344245,0.8924980866961101,3
0.7805275677818326,0.8301969089800598,-0.35630672959735943,61.22735122158834,0.6148223389950733,1
-0.08868649442857413,-0.6872757167102499,-0.5070441808465276,49.915177243472726,0.9864356624109527,3
0.24026519560307347,0.5035963271738659,-0.9819886714710495,31.44055680528749,0.5422450521224145,3
-0.44523763403773464,0.1365372325375367,-0.5290571659782457,53.16257421000188,0.5342514815510655,1
-0.6237576805524774,-0.45066826042418917,-0.7245433969657178,44.44613916596863,0.7977521076430514,3
-0.07260319012003569,-0.05113017170565182,0.22433244144629128,43.402296659258305,0.8613703838858107,0
-0.29329554394789437,-0.3324468058604044,-0.6669088228123974,68.58522304613983,0.9804430646124869,3
0.16731222370174414,0.15862680557692177,0.05725967507323859,44.45590002993087,0.7024728903994308,0
-0.8445307260700303,0.7780012216293317,0.18023284468894163,21.58727032882545,0.5126457044948165,3
0.948789615332333,0.13860996882440402,-0.40391660330617096,23.483800333465478,0.8014481697232034,3
0.9724214889592058,0.2634448366531681,-0.9298701019625626,71.37464250149722,0.6448480102993859,3
0.3963234280394903,0.0374956942294189,-0.9254922387716078,77.63604860075128,0.7164735605977011,3
0.07219273268824078,-0.8976689871090482,-0.9473053356121648,61.30456018734245,0.7442347411249677,1
-0.3809447674273445,-0.5342828862478115,0.47824933427309246,41.86209764600481,0.5322563053690169,3
0.6275900394138973,-0.015996541135834486,-0.36398059037140373,76.31601894768365,0.7429908922820514,3
0.36946234510775855,-0.37952943251059046,0.5926003719353272,59.76818518254415,0.7131598334021574,1
-0.6747661213102174,-0.6364728044776116,-0.13653435231430167,70.66001295196025,0.8562721326432966,3
0.8218543689876849,0.008265683836876647,-0.09400379834007233,65.95113824222057,0.8228329556061723,3
0.645074485846338,-0.35438041310429935,0.025765205019147475,42.748358946355545,0.5926078590752806,3
0.8995998265838481,-0.48378471365317055,0.4260629127502078,48.72213205104713,0.6030694591051985,3
0.45143901677671994,-0.0720291651192384,-0.45299426834058587,31.16792926208597,0.6255030893871867,3
0.22683039187157972,-0.7334314838356537,-0.7568253009329462,37.52084602644405,0.5894752201485887,3
-0.16351392741876225,0.8554914661508146,0.112114670382923,66.6875396771913,0.8286065998342336,3
0.8654569667080265,0.735404195838478,-0.34604475351452146,73.6387035129865,0.9972150896001353,3
0.7321277790008167,0.41524117148107065,-0.1150173726639252,63.46762539508471,0.8260541702579682,1
-0.9095626597876212,-0.7875723448230876,0.2938934166746108,47.9104217993983,0.8033407730956457,3
-0.947266051005496,0.551754508939386,-0.011748517717458773,25.190556136384853,0.7049639666755363,3
-0.2470732662439008,0.615914656218038,0.24055763420168574,23.416876921906894,0.6562901294298804,3
0.6211066615636658,0.5355292354286754,0.08840000422725569,42.45953387677123,0.9555368784532396,3
0.9745522586298889,-0.7720682257615177,0.4795927438721983,47.829303126059784,0.9845009370710764,3
-0.6991662177929436,0.2878159141355294,0.41187323542323995,56.54723733279781,0.7483880877938639,1
0.18826143070427026,0.6686495914987971,0.0683797836172384,20.389371283219834,0.6451002477532788,3
-0.23821828673795697,0.15470680243933543,0.35780604171941377,79.38337342797838,0.8850611038348839,2
0.9398287956292064,0.292814750456178,0.7471192045452255,41.836333004242576,0.5662283954334393,3
0.6842378462714174,-0.08327304114738765,-0.13545742442366282,70.88567982806728,0.8827941188218408,3
0.6766574094222757,0.057414639768105236,-0.1744738545024127,52.098002339924264,0.9094741871556693,1
-0.06261368041005944,-0.9312462832965496,0.5284912417047603,27.826367272000788,0.5624519723135837,3
-0.17036099532466964,0.27792604394656917,0.16510767408398808,67.8539331520713,0.9884307343982819,2
-0.45318585613858753,-0.8371055742176816,-0.8579864395548229,62.58962449519257,0.9927561451942393,1
-0.8872490066981458,-0.12997081131955324,0.7842240313821627,51.64616509575368,0.9683597396636756,1
0.7294447525101064,-0.41468980466518435,-0.9384337955247197,50.873185480026805,0.7480174047031322,1
0.6258020182601551,0.09085590042342617,0.4967927124194862,25.24877634505568,0.6230370711384142,3
0.9994353465722612,-0.7331673289535858,0.5175882854086258,59.350936914432445,0.7910046404409565,1
0.9932736741478108,0.3832868039466364,0.9062221705638609,74.67470934525798,0.7099669192357179,3
0.11086341120525489,0.5900230738569407,-0.8917311831953585,25.5946951532815,0.6029743223585986,3
0.537974830361021,-0.673291100513687,0.19371372156898192,35.81068703893429,0.7118382048089238,3
0.889531459764856,-0.7913738252962357,-0.14431885874589412,74.13847840652593,0.8319449178387952,3
0.6992947813548229,-0.7089690344252817,-0.33873409028091594,37.0606345891876,0.5354566553929956,3
-0.5053037965136047,0.7542551237970034,-0.8193628794018539,59.23662033079558,0.6667090007230083,1
-0.09891172937981296,0.05637852351271233,0.12530823934261837,52.089089896588646,0.5088974450064125,3
-0.74168116969701,-0.06547800798499481,-0.04191854865077271,55.77965630023172,0.8747477527308378,1
0.9081020545174447,-0.7865763617952914,-0.7908910836979515,44.94733409463519,0.8203456338083503,3
0.2123492689017601,0.2991120135139236,0.22497901419416677,37.999488233222664,0.5313360673509829,0
-0.5427143889930746,0.7359991837901798,0.47590624050587693,22.91200704378014,0.9823687798009839,3
0.34340136881171346,0.6563717386469059,0.5345566021072965,64.65685635764984,0.5113107785635503,1
0.23625648091579166,0.2521094179616026,0.8107463765248548,64.7656077316536,0.7949803232380444,1
-0.283674563934319,-0.8494425666966527,-0.18105851622244562,60.243544404723394,0.888183730899528,1
-0.772884815600742,-0.7752059456479741,0.9061455372442739,58.618027287177235,0.8939481565223615,1
0.3431463911855992,-0.9013820257803506,0.7308588101653721,34.62302793005158,0.517142567796602,3
0.040615401807586604,-0.4850415670150614,-0.4069968579521219,21.340696025977472,0.9532075663202196,3
0.5446367834712786,-0.7286770656792445,-0.681433925301083,68.52292381312638,0.959225835963561,3
0.040327002223986774,-0.4799039194951322,-0.12922120774397317,49.468312141749614,0.7806951865771863,0
0.7043630006370802,-0.22988388856207664,-0.1962025840880668,38.4102878421571,0.7410415994435731,3
0.10381367754897108,0.8859655681422713,0.1514386106624086,26.115914406834204,0.5224337315312999,3
0.12187594307077254,0.22075211956338414,0.166772464655496,23.763295454083305,0.7809770712549343,0
0.75330720531669,0.6699475713659246,0.4999739687599505,40.93200330771064,0.7046895408851154,3
-0.19303426757520592,0.42070300142466444,0.019779896411220355,68.28422388601643,0.8864032037043281,2
-0.7319695430987185,-0.7749937389467365,-0.7903547181184689,75.12342496002984,0.7019417834430439,3
-0.942434647373322,0.4718408127478977,0.7165826711062122,73.80508187678387,0.8417904166623549,3
0.510274511347238,-0.44980223688175114,-0.38047083362962586,75.2000500849793,0.5507040731187653,3
0.24061910270692932,0.2782156939894127,0.9425949206131841,74.46352058776057,0.5664761353829835,3
0.40815953619844714,-0.31807605271402295,-0.7642797826404597,51.63348509602375,0.5698550953245791,1
-0.5740716769821785,0.9953445265293184,0.9165023444650064,33.164938313414225,0.5227627498998717,3
-0.7272570488264605,-0.47289704100644436,-0.817976386234966,67.88279497020923,0.7706644296349019,3
-0.9709106686642361,-0.44173905845146066,-0.5379277241058811,32.822778491154736,0.896983863021818,3
-0.29882488238680605,0.8613445111247966,-0.9068401158269168,36.032436605394146,0.805205601846833,3
0.17983537370926617,-0.9507111907273547,0.4102262932779899,33.9952593093529,0.7874774427764282,3
-0.21551190980053536,0.39337797574639377,0.7005974731435836,50.89894422174835,0.8403119642013682,1
-0.12505015595254187,0.45065278147175625,-0.13185783636803916,39.30965049014479,0.6698226615360074,0
0.8083173889874968,0.6727571548207987,0.8570441500848593,29.249362977520487,0.6809770358241145,3
-0.3034890659533993,0.9488786212769507,0.18059814351119918,47.190404713632944,0.6571350491104613,3
0.027978978319621595,0.9512038383133048,0.2600142708930464,72.43443432711001,0.8560544664267877,3
0.5673060254822861,-0.8694464848670722,0.6908384034015398,54.233171296998336,0.5808201678353871,1
-0.20691443535745968,0.643678645505805,-0.4063995898963222,72.70013635325523,0.5065126401564621,3
0.24417340045574698,0.29261986731476264,-0.2914685573447484,31.752331104748244,0.7980982233612461,0
0.7247274174934903,0.29468426874618237,0.8119038383892887,30.018432420353243,0.9711906823671027,3
0.8990412473152842,-0.7433001467706104,0.8019269920775276,54.534627541905216,0.8047039584981523,1
-0.7058530381419241,0.30037433289130666,0.9529655524017417,47.79973409277638,0.8914608264704476,3
0.8531752503229888,0.9649651612024956,0.8036766328833422,59.61035849881741,0.8363953547330151,1
-0.015767413840923616,0.8236371390788939,-0.7452559279332782,67.6776074616069,0.7487183267615081,3
-0.4835112234020833,-0.12173867839029895,0.6474485722739747,65.07843773913058,0.859196200891923,3
-0.08172848752347739,-0.9201040534278113,-0.18032304378081188,76.53567041951366,0.9120520619276109,3
0.9600651505709541,-0.27541301999959034,0.9816027118918758,43.8953845494207,0.612365822085849,3
-0.014763812014260802,0.6527806232011104,-0.055438071342397865,32.383204534890844,0.6680652402415728,3
-0.3424967794249836,0.40299820293033206,0.10767216500444121,53.05475839687315,0.6118628662516419,1
0.26680170863345154,-0.0813126888120872,0.05954983051359708,26.644587211471134,0.7260864777952205,0
-0.5197087624436139,-0.8897969296823378,-0.3565259402834444,37.33106739989789,0.9425322754583338,3
-0.8482733437826722,-0.14621054435339476,-0.8499558222141637,32.47328331578867,0.6726035504176662,3
-0.7422405561787015,-0.06195012056423299,0.791302460803837,43.793823007824855,0.6872334445652767,3
-0.7439083220844551,0.8571110657882719,0.6053516250525737,26.672994500132923,0.9301836173359659,3
-0.6961946129754113,0.2821722071643189,-0.7209464388806615,21.91050467288587,0.7576871653723376,3
-0.7223456547011797,-0.3766941666907022,0.5535365427001457,59.40764027780191,0.7677244998237172,1
0.2817494896064292,0.05063652890144277,0.25169333210122,56.61493869738829,0.9304006016661064,2
-0.6362398312017103,-0.8678893843556799,-0.18171242416475542,62.501536162319674,0.7452633685127366,1
-0.3086654333522736,0.9451364712994736,-0.49195770180887455,59.62318641628064,0.8407787673146976,1
0.7935768198120237,-0.279880196138548,0.719457567004465,26.85768086854301,0.5428223329370303,3
-0.052076719474255295,-0.04426529017372838,0.4003765185881061,37.46473288253878,0.5893158565634427,0
0.33511547704205435,-0.2894320515261548,0.09547981893827373,27.77159659402114,0.7021881003581227,0
-0.6553602575967403,0.3650234602324003,0.2191370677969282,70.57834412291379,0.7474195339099374,3
-0.6154219623826584,0.32446431665918607,-0.817867635835638,64.8142193213314,0.9828668506181147,1
-0.9182627674670423,0.4306446210582713,-0.052160478177616154,32.09162017509455,0.985325816523895,3
-0.6621298738556709,-0.46371354077615834,-0.612599414428596,40.478554429393604,0.9255985437393808,3
-0.44281932193608275,-0.36866303767186803,-0.5832326419823493,77.99689953585286,0.6577994176427873,3
-0.6459790314465064,-0.7494975378075841,0.32260792457373344,55.64956147277909,0.9820141454162199,1
-0.8225949324858888,0.3110199436922252,0.8225123036685762,68.06933583806943,0.8446704323381062,3
-0.7587282577987984,-0.9204057453286949,-0.1924867790433069,35.87546208612375,0.6964700639087003,3
-0.07844246393454846,0.19536467104691813,-0.5845014539756193,32.60317521075831,0.8508374584923832,3
-0.587332563188415,0.7393917697032677,0.29749387447330844,67.0350157307929,0.5082613648932632,3
-0.2714602779038491,0.7816642965792671,0.7423740927006355,61.15234731388641,0.5730773411371068,1
0.0068345417097137595,-0.10192447926007664,0.49663760224498166,60.85867575270582,0.9148428557781838,1
0.3807896572587306,-0.08139262357385246,0.7375144610731743,53.15807490975163,0.8227868184365856,1
-0.9213757203178021,-0.8460616339839653,0.07310934202159869,53.81470056659293,0.682097350645942,1
0.5988207978180853,0.34153005088607147,0.5037524887383817,64.14185031837522,0.7503333201113593,1
0.2558007789818155,0.642518840745691,-0.7198708812821271,36.20014886727172,0.9525710748228835,3
-0.8364819361022562,-0.5106898907905739,-0.303450769273617,41.166107951417345,0.8157890547395432,3
0.7471572482135544,-0.1573982367332707,-0.22090167103695513,72.2982062312033,0.6990746419671652,3
0.8417448010636264,0.6776786735305407,0.022591492492069154,38.53191206072947,0.5601633286987675,3
-0.8778440802902725,0.754240935324576,0.8581527205136474,52.778574282757944,0.6468734008127806,1
-0.44624470370559255,-0.5136400394715481,0.7485931204443486,62.15836784040105,0.9891701163982917,1
0.6124025595861227,0.10114126908272847,-0.7309490154216309,79.99548960999059,0.7186815314258888,3
0.4965193807673167,-0.6150136987283459,-0.6544206962350736,46.11747988971992,0.7359197319224304,3
-0.6309579612872454,-0.7962424717208869,-0.2847189008221773,45.68557259749663,0.7492990161985077,3
-0.5813013533265794,0.8222410027839151,-0.4185122682186522,70.55530276602005,0.9420520114741056,3
-0.25905579441723603,0.6410150084642183,0.22954190631252458,68.33018667559179,0.8019641421926549,3
-0.030954029617957346,0.5200698036063478,0.8055520955290898,63.86455290407291,0.846838518225961,1
0.2365095430605919,-0.9024673623737192,0.9245830833451736,47.793778244541734,0.694706771274552,3
-0.2621727208604552,0.6874575854205149,0.307205905070453,39.436347209642946,0.5145438092944872,3
-0.07493056773370421,-0.12391184818923251,0.6763184028021734,56.52382895509092,0.9654864571214221,1
0.49494187626751307,-0.3152097534082807,0.05040440046159422,72.57339758789846,0.9745638404582032,3
-0.9266335942188042,0.09295272205075289,-0.5833461062799206,73.0266474925152,0.9745765266740256,3
-0.4951261113119585,-0.8172935145528883,0.04937682418695477,26.509900704226304,0.9718435433233583,3
0.4266991717691049,0.5132930987047977,0.11016520287530218,45.70101702878904,0.9076209705347805,3
0.7904136753743987,0.16487015377659175,0.48491512842711315,47.88331737192497,0.8422980250581634,3
0.02335488423133225,-0.626819806253665,-0.5602340205853018,78.6569220514252,0.9222549591336429,3
0.06422697053063131,-0.6235356004619088,-0.26337923582653655,60.67988091455507,0.8002731195005182,1
-0.7856559773204479,-0.6315026968546515,-0.2719450615708674,44.43478503572423,0.5671848069460118,3
-0.10517526635309071,-0.885995224896132,0.9188791914823298,21.56347315913558,0.6956090825207105,3
0.06523453291004633,0.1755968987433696,-0.11211007934656214,53.92310960595176,0.9856474559864687,2
-0.5150589927305407,0.6806963551770162,0.510187934596293,25.764558538301365,0.6755689067978281,3
-0.4615135381012381,-0.9650035720252228,0.5016227627488781,70.06699744086578,0.9339139568656847,3
-0.2454316737907547,-0.9019907100574529,-0.46891163039351724,65.15111963422173,0.5466057353874347,3
-0.9598576044445473,0.1455405533738916,0.1437393787434642,47.630549594490724,0.6670919211877349,3
-0.35584166883364343,0.6389913707721047,0.7886057866372962,45.75264677250198,0.6754766623636899,3
-0.5771039860069107,-0.3465222188627328,-0.04960456108610112,73.84033793412613,0.5258012715544901,3
-0.3450052956441707,-0.3007712023845557,0.8902350146850921,37.3075010250877,0.5595471650933774,3
-0.7604757363614976,0.19269299499355186,-0.5710835413516768,34.941197726406244,0.5965826055608855,3
0.7810545614797899,-0.45157422175170603,-0.8516817884519385,76.35184596954572,0.9189077954050564,3
0.18718490710809732,-0.9467832678446317,0.7829077462894987,68.55475020520896,0.5317009949699032,3
0.3582046382889792,0.4704570362031921,0.6953623959244333,69.23753558403168,0.6493504506721937,3
0.5783424772146766,0.2512998258829062,0.9851797518676895,31.71162885655553,0.5050875012946338,3
-0.003115602141885443,0.16151199811131822,0.3587869762248521,28.597759485856066,0.8478138727015123,0
-0.8261594238251526,0.48336825798364624,0.873375853334299,21.561772989028093,0.8101515450216898,3
0.07421308363709556,0.350461675124075,0.6538980501682217,34.2224905351208,0.8224911310265709,3
0.17368223604175825,-0.5882360236433577,0.6888526662401737,66.45142950285948,0.6871913923573094,3
0.49087894836866,-0.2950379061132977,0.13828314090853655,34.40230512584898,0.6041339106337845,3
-0.13668090754064122,-0.74777971664275,-0.2352708041665783,63.74619701569257,0.8601601066430167,1
-0.7448393944088725,-0.7402859731642379,0.8691161450865637,35.11449592204529,0.9055589363703476,3
-0.43244818840255106,0.35239149271307846,-0.13576564876821107,43.7175498770403,0.5693007490491009,3
-0.2738354072027298,0.7172002139649964,0.07763873449933811,78.98973739468451,0.7434147139687106,3
0.29183448266320244,0.925465167722278,-0.10777138574962453,34.688703877048134,0.6243578409894313,3
0.14155660933782377,0.2566942350988888,0.1296366279203942,42.58223763789606,0.5840534306030669,0
-0.2878065482043075,-0.6317973532780861,-0.05898984201534563,38.06523082791282,0.8671626567474995,3
0.9730304975859594,-0.7886993091021386,-0.9040648828410482,26.577499179800135,0.7690484677364184,3
0.2115496387137743,0.6257019430735156,0.7640963720153973,49.39364852784949,0.6080926661893339,3
-0.525546416528011,0.15751295271999854,-0.11121236216846042,42.72143979998013,0.6550000056057725,3
-0.7964350547591925,0.2365700420274397,0.1778872970146974,61.6932251484368,0.9833268356638711,1
-0.694281721631336,0.5629241775094185,-0.7216243944840259,69.05567281709277,0.9243397823542783,3
-0.5080845432309837,0.4065544554649032,-0.9932243040347217,52.65498286973831,0.9399733714365641,1
-0.6786372534808887,0.6689165057121933,-0.5094198127127141,21.931785325240213,0.730006048540354,3
-0.6268659518973885,-0.887572189080243,0.4091720642667005,57.135341374083296,0.8119036319604376,1
-0.4298096626123058,0.49504127349300964,-0.8016109397742428,23.323443801256353,0.6883838701022058,3
-0.6532528094104904,0.7017055146441908,0.8177748807729357,56.9813794159415,0.5388559878444452,1
0.7935308492528503,-0.4277299150833713,-0.5699548612876308,61.10179695615131,0.7005346553283913,1
-0.8395325086767156,0.2808945479865057,-0.5908127714164484,31.866057657051105,0.7969903766035724,3
0.04902277914050934,-0.3716758723260558,-0.636984076757009,69.16076892330626,0.6435721353840658,3
-0.17920634602067698,0.915942132964908,-0.9720365740572705,74.66510789444291,0.9239752873637079,3
0.9647572338172128,-0.9331528551289925,0.5436109369564692,68.78521784682917,0.5755500795872993,3
-0.7759221956638953,0.15958568766591008,0.7500690624905171,38.30655141272493,0.68356454471846,3
-0.20428880190851673,-0.6669929059009698,0.22832540523239775,55.19858074673807,0.5624519526621015,1
0.9389408665507377,0.42444041035431734,-0.6236000366402754,74.88890895147367,0.7024160669926127,3
0.7310142517879605,-0.6482194331626758,-0.4294440061182405,39.239883573370996,0.5198306524871352,3
0.6341441418985598,-0.5292334762032849,-0.04814660527007342,69.2016693359255,0.6362746975308227,3
-0.48419434591012034,-0.01125837790848383,0.9086919032466017,20.56850787570179,0.7003676275568418,3
-0.6582248252198684,0.8296698999937562,-0.5052972563645144,20.218802167080575,0.7390826816383458,3
0.337286439848862,-0.5765712557040583,0.4632918078397761,65.58269962033805,0.7718481792375709,3
0.8587519782551716,-0.711519957763793,-0.12110355341415935,65.68685492762727,0.6374955648949594,3
0.11352578602785957,0.5179536637080613,-0.4043053032799564,67.33863127113763,0.7615206673074362,3
0.1432253789397997,0.0012390646678619444,-0.0881681259557725,75.80161027328974,0.7545023107810299,3
-0.44004181267943165,0.8235702247635428,-0.8575865649175349,27.07437870921705,0.6580890254381042,3
0.5389858663838738,-0.7067708856803154,0.5973747418607249,33.9190990990213,0.9151001653282391,3
-0.6259125028849533,0.29185578604607865,-0.5133961440340657,74.22349522242845,0.7728205632967826,3
-0.35264152719151265,-0.5342417076963699,0.4508242463859409,30.634171866341205,0.6661348593732725,3
-0.14912712276716644,-0.6864791426967214,-0.8633032571036106,60.93375605459504,0.9736692560403882,1
0.015220757368910043,0.36685883031454103,0.9101971123313721,51.82778000244892,0.9225562065355806,1
-0.5151805351698395,0.18736923981746645,-0.6139700291886028,24.991620611090433,0.9912939057759005,3
-0.7703263505215929,0.5096549167246625,0.7654841524141609,37.11581971649197,0.8461169373227104,3
0.2212400848832652,-0.3810748471076353,0.6189464192308689,51.22233298645807,0.6891114527530234,1
-0.42273889351948846,-0.10405668723562012,0.9357198481628319,71.14100700103005,0.6404303333395062,3
0.16247644284522456,-0.18905664733916305,-0.044218678108500775,62.45230937688042,0.8316589218372406,2
-0.6912745694515954,0.9681789279330284,0.45479458769190306,57.31298968729598,0.9904082912476518,1
-0.03771979629036504,-0.4155020865212242,-0.2585786859244319,49.76197339648489,0.8133575400519244,0
0.06517886510317172,-0.41036552330646625,-0.6312635239606124,37.92103902884806,0.9408074704949191,3
-0.8963529263551462,-0.29090358234278524,-0.11384813413310235,27.15469467915567,0.6645517155238843,3
-0.32679144361215884,0.12918816258064303,-0.6685019692230902,44.544562073965736,0.7034768912371279,3
-0.7311706461220515,-0.49535451147250953,0.9640892455727679,21.711109634677555,0.9531376197946766,3
-0.8732500590544645,0.8305798807585478,-0.8075070177185673,32.66335335601104,0.8784333509789094,3
0.9799204647798905,-0.468628870267473,0.1784234469052408,45.94900255235959,0.9907051601839529,3
-0.35529231005055406,0.7916314631203893,0.2529277105081118,45.116311140314906,0.887382104866121,3
0.6197488917092697,-0.7930498727068307,0.07615908574810848,22.657725859819543,0.7242578536091159,3
-0.4907186904724723,0.3131254047993046,0.32437177142366713,55.343609211517474,0.7655340099111816,1
0.36300544444785854,0.8139710368764874,-0.7676384499762181,52.98105535119417,0.9502577462315683,1
0.5204557197793731,-0.6625011232035409,0.11003704841058215,24.68625824125477,0.775823368049024,3
0.19127748121568855,0.93665392019851,-0.4255748577452769,76.58978314762635,0.6276986870822225,3
-0.05684762289968326,-0.09423327916897661,0.8803521266021133,25.96296673705161,0.7178099063849748,3
-0.17631817170546293,0.8914302168820489,0.5241433068794514,71.29004907424016,0.7581579944245589,3
-0.3022634669140094,0.353640087260094,0.9450289643194854,20.018583914900358,0.5483599167755648,3
0.8590582884956517,-0.3968262602528969,-0.9248878605196209,72.93686570272298,0.8718813371264451,3
0.6612388155754583,-0.6233949501657872,-0.4297336496385826,21.183183932258753,0.5546769666774864,3
0.9300538213330252,-0.3925299075498012,-0.609154826723302,65.46872191352696,0.7024588566844028,3
-0.7514055530289105,-0.81396518147465,-0.977690825376339,41.701448678015176,0.9023112207702022,3
0.4617349504072885,-0.7122640673133405,-0.5153485395073572,64.29300800817919,0.7337851808066485,1
0.8766809136420757,-0.7906791193070377,0.3575519670408578,44.10471232549871,0.921007759859254,3
-0.6375338676686797,-0.15411291251688453,-0.5378221557308629,24.254475339910506,0.6709406610280575,3
-0.867007465266445,0.5911567525151729,0.018006890965236444,66.05040172372185,0.9788181469992177,3
0.4822412985801181,-0.7172328915673196,0.7756362299299973,24.275161119281897,0.6047342159026178,3
0.1489462263598238,-0.7393591336553282,0.3875158406981505,75.32722615767307,0.5191320724946507,3
0.6836575535165441,0.2868578990346615,-0.21074186018793606,23.058442147499683,0.9362132714952093,3
-0.720455246747421,-0.6056340360638675,-0.2550621221757834,48.75951666629093,0.8761013579752042,3
0.5905346237197804,-0.8047799237820168,-0.08852837198303054,63.38206585104774,0.6159919185336864,1
-0.5967453599045109,-0.6663028435888447,-0.6459171178801872,43.594787887522266,0.992370803568337,3
-0.672688114268591,0.8474627917535522,0.2680015348319762,33.03400847554608,0.7511400646342639,3
-0.6714684041380141,0.6429425055523816,-0.271694361790789,65.54545768376163,0.9755327200720818,3
0.6291494404627642,-0.2918708752898118,0.7047306985240873,67.05768228732359,0.7525143856934997,3
0.33039444139240026,0.3116415346547856,0.5131053201156326,75.36169903726204,0.7359372933856455,3
0.04613084953823865,0.07455134733607616,0.2210263281843201,42.56990662586466,0.7245692685722325,0
-0.282339031752995,0.3542485269651279,-0.27159555470096786,50.37510406983961,0.667437638066475,1
0.7544010816262166,0.36534230492551867,-0.5801363366530312,41.78770657076432,0.7668507485882758,3
-0.21510978515472923,0.25746803011998587,0.5523037282112457,35.42490931108209,0.7262773309742839,3
0.6331988789431542,-0.4677972629253828,-0.02718180201782694,65.0619776922565,0.5183734383117771,3
-0.12173018285956316,-0.9219871584743637,-0.550499923645285,40.379110701017325,0.6302176167117512,3
-0.24611114115018484,-0.08886643601978239,-0.6096507699199876,45.688966519541125,0.6065614000527793,3
-0.07464042866078713,0.7819477693814076,-0.669198190997282,44.22041945744167,0.9337178011605333,3
-0.39724425167171584,0.13899451703715182,0.55432239241119,62.75967353880475,0.7994349886134207,1
0.49521876035250223,0.6647820834038158,-0.5420256293993766,75.06773756664079,0.8818415502248638,3
0.005440780184958305,0.9832486859224563,0.05328452705039499,60.005363678442635,0.9784130188746403,1
-0.5355746097063654,-0.6727675917234475,-0.0969072780538871,48.29495576565395,0.8220196362632051,3
0.7991491465491369,0.38355527828396463,0.1592217984565678,66.75230688433301,0.9913049957023722,3
-0.23221755725357718,0.34858714740004926,0.7543098007423885,58.45827944732825,0.6558820258260648,1
0.08710572222797719,0.9599108947165569,0.7354947801634613,23.63662142706881,0.5931335911564469,3
0.8129442219290939,0.9712014679056007,-0.0978478563502807,25.7398151851305,0.7016549439964557,3
0.2484759918279842,0.37335722344825895,-0.9692674985305534,22.275016644418,0.735399707467904,3
-0.7662039185832719,-0.5127704160356115,-0.14711238857139364,47.408979572379195,0.9476807714262925,3
0.8796642472269502,0.5971116762611981,0.2123870748482808,69.55120606033789,0.7799702195183382,3
0.2554161061428357,-0.7859417315779238,0.11552951819612356,38.784990161081126,0.6460904997090084,3
-0.33018877068582775,0.5613986083432574,0.302672211600411,43.0496109855489,0.8713171414337604,3
-0.7214558546732255,0.8203922482893928,-0.691848535053833,74.56862650207344,0.7529159685695355,3
0.588050378540592,-0.2343332104631295,0.29307019756146513,70.21420671899929,0.5810659726375851,3
0.24014551185702704,0.2612705899661609,-0.6346967625124555,59.9028867429536,0.7884098937956261,1
0.06692218395264304,-0.1397145358063474,0.5010479613934979,36.00822692553508,0.955697268403642,3
0.7877851661019153,-0.12446989002374309,-0.32182477347464,27.02248896130661,0.9213113087379101,3
0.5771944224490615,-0.3792582217837599,0.4197908667629071,20.963529360806824,0.7934049863176655,3
-0.6966502405344976,0.5242592409006492,-0.9042688021877858,26.420640356265253,0.688541586942494,3
-0.37655586440890354,0.8723531283330104,-0.18427994881817322,37.55578661743657,0.5434893755321055,3
-0.5030217203710685,0.8815017184689222,0.4100690445266655,53.10740381476974,0.734824461665812,1
0.48789258514535394,-0.6504374302501323,-0.5462589673370117,23.840004965143212,0.8760397187647896,3
-0.9329351305284412,0.7494872993131321,0.5905740895944451,28.17366669910694,0.6801368598665053,3
0.13977936974263305,0.4748628828542443,0.2615594662098639,30.86484213847646,0.6177234127758322,3
0.5249173714813811,-0.4943251986194215,0.17512354429959665,57.91892557899837,0.9656898596354767,1
0.7535312735234989,-0.8654307741569709,-0.29290229159132575,56.947387938807466,0.9107778502289963,1
-0.3158365025681851,-0.46400546623124406,-0.03509705923776485,53.04594358232917,0.8191378097100723,1
0.6425146093440257,0.8244164735630513,0.1946986019557062,35.03008548175637,0.5683916719602597,3
-0.7787365260895855,0.2663573497915446,-0.055075772170219084,42.26718147312392,0.5724544202030866,3
0.6929045834690364,0.4421093217957437,0.39662664788112023,25.801382980264584,0.5516097957278895,3
-0.7450226753360352,-0.4856952977818083,-0.13260613378608088,33.587636225483294,0.8081483334463716,3
-0.20542541887926546,0.43877631114964055,-0.5954536365159393,73.86231358835482,0.557781398236668,3
0.5945907315591072,-0.9437569874441525,-0.5721324343979055,78.78150478614971,0.9213135994313165,3
-0.7001651453024524,-0.24935730845397241,-0.9883924623141178,58.85957513841768,0.9964825009096611,1
-0.541497209534717,0.25350669708466245,-0.3980845688826551,75.00939752140522,0.6831740923543326,3
0.44450513678613257,-0.7078068689173596,0.4978352809570392,58.564514024085504,0.7268349234835487,1
0.4400730730921487,0.6460071488938695,0.5883254176752191,21.991789166328193,0.8558335884928394,3
0.2822952657705946,-0.5299374023761627,-0.5950649158085,79.80575509918454,0.9685765031628829,3
0.38789688893420005,0.3045622256368925,0.9180879937428155,25.937138101192094,0.9470468867781925,3
0.08544888669519235,-0.18960571484934063,0.004805586960253461,60.958508086703645,0.5287959143749243,3
-0.4964018821860945,0.19208719095529436,0.8339574980370053,35.1701721844874,0.5845359012783825,3
-0.3086080129921611,-0.7850988947421838,0.41353056372326225,43.51886677441761,0.8772985992788962,3
-0.6368045663971487,-0.9661744001567854,0.4448668460448262,58.756051088056296,0.8444465540162236,1
0.8169011226672567,0.8191288547606024,-0.8299127573878577,46.18924095846242,0.5666092970200616,3
0.16678358953224093,-0.4607399824656344,-0.5600177462061386,35.032763535867694,0.7510322910007838,3
-0.19829716647272022,0.6393540055609181,-0.9823703334110547,40.06677121269948,0.8904073155426477,3
-0.07598839271173463,0.9987006009444004,0.432255280953475,40.49288701539058,0.6093903411313468,3
0.8945666792236306,-0.5771374840021777,-0.31112342314298,77.55943427049283,0.9356438178673332,3
-0.6932971937678396,-0.4696585176332888,0.5733050321526936,67.91678095540706,0.526485887410184,3
0.17245966403359447,0.3257195752693314,-0.32212756012594745,47.51292628876401,0.891097542534037,0
0.011777357768931962,0.9308972692012425,0.6386675045977221,31.989255220481848,0.8079094498949351,3
0.22290847086929566,0.8316286963814878,-0.738603492503374,68.66096661575935,0.6575996733271745,3
-0.963779632358319,0.005751040131169782,-0.6532536864849836,29.43094829650241,0.8604662741709557,3
0.744247817888303,0.5902205650534493,-0.318246920832127,32.627733028520204,0.8911828975755798,3
0.8642365649672248,-0.7285082938001979,-0.18302522223545337,41.960803510409065,0.9669494856519847,3
0.13026636717841789,0.9548763684080246,-0.30259437831404323,72.8208917511194,0.6838873360771318,3
0.3933016477537845,0.928706468071973,0.5272940650464397,27.907200118046617,0.8430083679899775,3
0.8449987623545914,-0.6725420842416581,-0.8060972147465706,27.334051571271566,0.8013081384673455,3
0.41447726862679724,-0.40115375039378676,-0.2975659607230239,49.63849929831596,0.7626030347285442,3
-0.6949219141714773,-0.7996900049864661,0.6744799990309187,36.58463246562048,0.945208237077519,3
0.15257672033362635,-0.4565648022036406,-0.866405845475656,54.123676498889594,0.5015836570692002,1
0.2134300927657118,0.6319115788304133,0.8846870153427149,47.098201080993405,0.6410558030517988,3
-0.15173865739522796,-0.24336878566948106,0.9726336845440258,46.09754638107301,0.769138619772415,3
0.47288847124944566,-0.8232060657064832,-0.8228636523498398,26.718378229219596,0.5891466308182762,3
0.8687340295380297,-0.3155489504421909,-0.41745495548852607,28.46298141499041,0.9539332668663791,3
0.8511370258135527,0.9627666684825602,-0.2551986679292877,69.264714646811,0.8237975588065076,3
-0.09832125719173579,0.25936719051840584,0.5527827373054521,73.15296425430466,0.7389414973159949,3
-0.7735239083184895,-0.1676781071876845,0.19185362423346763,34.08101197311501,0.9073508795333273,3
0.9696823979246691,-0.66692297300546,0.2887314009851347,26.807630091486143,0.725443095732552,3
0.6777961728918682,0.9723535945673896,0.515019645637012,23.205000316070638,0.7793265059650047,3
-0.7506746375934663,0.6416980185262575,-0.7640420011259486,56.49785682451381,0.5013754977769604,1
0.8416837652347446,-0.4370453950981612,0.6664189138205248,62.92119275001233,0.6828502650975368,1
0.7397927241242566,-0.8598626085576211,0.41123960836028806,42.368599352192334,0.5693952361754848,3
0.03767611425214423,-0.8867488852448839,0.15468345039274056,60.78055204943838,0.8448443403311455,1
0.1825508714898585,-0.7592437009889323,0.7794706695661133,62.77752893357157,0.7395134794878668,1
-0.20199459225973948,0.16153716722884326,0.40061270776761426,76.12053688381431,0.6508787786251153,3
-0.8904767223559373,0.8575268424109848,-0.5966000747379492,23.892418270106436,0.7339161696858711,3
-0.32960551670819815,-0.006513143988031045,-0.14050923784866653,31.53750339386479,0.6048149439756731,0
0.6057068971960229,0.6858909649123943,-0.011914266128533413,24.111559255819287,0.9625433162430703,3
-0.9907359539907943,-0.10822676028038436,-0.8895647464991887,72.07963600016663,0.5269863162754564,3
-0.33300165661771164,0.41716709153565046,0.9092750267201115,67.55522960201412,0.9327085176480602,3
-0.20366261281811338,0.46374547457300164,-0.742845478406243,54.47852423731034,0.7556793943666755,1
0.07479120587584576,-0.6520725881933227,0.3949225344534537,25.019804603070988,0.8094732480694087,3
0.839711232825521,-0.27756788204837646,0.01246207218176032,36.39874151922318,0.6513028104543519,3
-0.3073080112680775,0.2746043130760478,-0.9487355002311548,37.86319088351102,0.9833488083971607,3
-0.3060935962075446,-0.8586067836312676,0.8494949517287234,53.644591760925024,0.640925479259745,1
0.47500249621949675,-0.2769196244740868,0.7036736176378664,35.48263364220293,0.7944389985701521,3
-0.09556411822038569,0.06959893256238492,0.04851585580767104,24.37759183477729,0.9967083525535645,0
-0.5507903541200361,0.9924489860892773,-0.5421153277211095,63.84573811119796,0.9405471981917228,1
-0.0951209677346132,-0.05093287475511854,-0.7567542186398115,37.94481269932468,0.768164912643053,3
-0.7182859592404003,0.6321135142286471,-0.2732150411357468,47.14245062139804,0.995187261483606,3
-0.6472260269875534,-0.13586542986676453,-0.489143437907819,27.65999809893832,0.8506849308663074,3
-0.0032644545210405163,0.5927814452394178,0.013382402012597439,68.15289820367477,0.6043502080709047,3
-0.16214910099090418,0.1908296032402168,0.9328185922468579,53.93191261544346,0.7027981052179032,1
0.8296918021362001,0.7731908830047967,0.1499069864592828,74.09513757259177,0.6672466670057755,3
-0.2752122017667338,-0.1781148952997802,0.7798621117801958,49.72829378392,0.6720068541355946,3
0.1611767005560869,0.20860883964295773,0.3017576749915545,76.48554030907277,0.8802282196799331,2
0.26452857583906075,0.26003736123765475,-0.049506946825599085,73.51209226287955,0.7921314636363967,3
-0.9738110868233327,-0.1652341163990534,0.7092151254667425,54.587591387554035,0.5190463557947642,1
0.3270747440334212,-0.711375912625037,-0.057263779654004976,76.0336062889918,0.938724241825488,3
-0.6439280662604971,-0.8128811861753289,0.737256341020722,39.38532483767314,0.6483980702400822,3
0.9221406349389103,-0.9666568988007338,-0.41684646084846944,41.938529762252685,0.9985374384565718,3
-0.7026745444937741,0.7470685284904293,-0.7423738524740238,22.728677078362217,0.9770953651673928,3
-0.17075175254595254,-0.5270501755226109,0.7106289287258767,55.35205440583118,0.9702653583409826,1
-0.8293006638427123,-0.5769865014364639,0.17483032758533357,63.315438195736,0.9055638020319868,1
0.9937485036918947,0.47207080085213105,0.7781847964979203,66.41115141452619,0.6103066658417713,3
0.004390020662485172,-0.3599677738252165,0.8756544139847664,28.988977162766197,0.7663163720143911,3
0.19077003464008757,0.012089384823673166,-0.8927432192571017,46.64954433875002,0.6121513134124873,3
-0.865847045223145,-0.6749778694050874,0.0019386037177366866,30.61179272563494,0.6298377277944747,3
0.4999209407983556,0.9194914429239385,-0.2500709018509415,59.72764093125493,0.8054758847181387,1
-0.5801888138088285,0.7031628000344747,0.2517167941402343,29.476782345306088,0.5204167726765316,3
0.7961085788814275,0.7275792459300066,0.587182394404647,74.2498210373645,0.9847292834103538,3
-0.5897207190359857,-0.18645250285598958,-0.4388195680512621,33.8380787396848,0.9593365862889822,3
-0.6186245586726669,0.5247224274143456,0.11359676874634328,37.48413597729469,0.69038378607886,3
-0.9269006643038102,-0.7122476892204397,0.41745715980979914,71.05437932905998,0.7577112240034565,3
-0.055866109780001505,-0.9827619948164394,-0.731137834328532,47.50805660874343,0.7330597096338796,3
0.12968226652523285,-0.9600541348439438,0.6281338119025337,21.43975674800438,0.9410998893087349,3
-0.8685827211432953,0.1732034748091209,0.21221919970594616,49.675175072158744,0.8443009381580555,3
0.5510552333900212,-0.08921018950411841,0.8990748742273036,25.072600122807383,0.6390556237121783,3
-0.09342233050394477,0.03603069781703949,-0.32094216173861345,79.12068312123864,0.7234206272326484,3
0.04878053865516008,-0.9850737191655612,-0.7837081153256027,55.28669422733614,0.7144829878433818,1
-0.11847450612354371,-0.15462676068514858,0.013002402073850616,35.39195705665871,0.9796675841419593,0
-0.19847387824934803,0.4361363224017216,-0.8283784565811223,53.82306077285706,0.5876554552573199,1
0.11928066261643577,-0.1146125960651283,0.9390530466480136,24.61202620290529,0.5447881686472145,3
-0.689519508138575,0.4644384126244445,-0.9226300834856169,67.99347825612902,0.9403094160808452,3
-0.6361437390094578,-0.5339620712063304,0.507007802214616,75.51968323184983,0.9483429947529354,3
0.7235712420270346,0.6262840089634509,0.05020479628448804,72.46666329236957,0.9358695439560824,3
0.8922309242672655,0.1768624809069046,-0.26275869500342264,40.50545613791377,0.7554884578127782,3
-0.2533813674404941,-0.5784738011401875,-0.8683156709826907,39.54608717860211,0.8298722141347302,3
-0.45851065371289246,-0.5265590482923341,0.2443338483472155,22.105256672978,0.7816815237804919,3
0.2879990864780315,0.2560609291390741,0.1704406587819105,59.084021522055004,0.5347239130272005,3
-0.1825316578038072,0.6598791864248867,-0.4382334538648005,52.094287051387695,0.7979174484503613,1
-0.9492272886793103,-0.16874443594168964,0.8204434028206242,47.56078227964048,0.5068070736280504,3
-0.6876948052676193,-0.4833991417448156,-0.39177998531432623,74.45785720008243,0.6624937047785431,3
0.43194445769479506,0.7340232138212008,-0.10054917881578773,30.072734064970778,0.9661462879365835,3
0.3178478838203027,0.3385365835016698,0.08752491183731137,20.57997600141094,0.6520226348179038,0
-0.945808014993033,-0.10382902543384698,-0.7995362436474278,24.398987127245924,0.9699133213221239,3
-0.5560556761341011,-0.02419960944139632,0.8643234384272647,33.40228626964213,0.6250669785746221,3
-0.5378504068238572,-0.5914870641272072,-0.2509276950979178,21.997132955807416,0.6572811202307662,3
0.34378548719745683,0.25360526012968787,-0.8384415722513128,50.17062263858813,0.8142037482192768,1
-0.9605789244912717,-0.2825149789142227,-0.2254176526493401,38.845427314014685,0.8808134863946474,3
-0.7917828360308523,0.9912903533486985,0.2004050941851614,30.82898048408796,0.750693884002442,3
0.5998321707463787,-0.0396329694762243,0.02730534364265913,65.00504449691974,0.9410578435970778,3
-0.6429106758913328,-0.028228787620773632,0.38908394807454805,32.267079573951804,0.5201202108053096,3
0.3054922157037494,0.13170357482134376,-0.8890321158641787,61.2563060596276,0.9610974193171853,1
-0.523634437906547,0.8335120062374934,-0.43091877945588775,40.95589435085834,0.5981538999477041,3
-0.8011172144813097,0.6016361997195006,0.6384611536802045,50.70966563975327,0.942119372542328,1
-0.5136556180010918,-0.09773986040431715,-0.8402126244172783,76.03202239107918,0.7004315897431903,3
0.4445338637113183,0.437398531945592,0.7109719093919151,22.24109808894877,0.9163785279355188,3
0.7113929362125715,0.1724709975615233,-0.8162078158457875,50.01587044864771,0.8358327749018475,1
0.6604397291339832,-0.015265902597502157,0.6689084297833925,71.2653776196571,0.5879708162391311,3
-0.20563294076309035,-0.615368454431299,-0.27842319784254665,55.27845490222091,0.9590237849407242,1
0.33617027314129233,-0.07212747309021816,0.2244181265144316,36.612231017909394,0.6227586952442299,0
-0.5900314091683581,-0.5083628259548507,-0.6942257687040037,43.860868108702064,0.6220700593474995,3
-0.4137045394779735,0.8296842997033094,-0.8676625565496383,60.81593772371447,0.9070894483186902,1
0.7926716370422395,-0.32918637300730613,-0.5681235919597298,73.44871365882818,0.5529366277862605,3
-0.9739961529785279,0.9045280290667446,-0.7442923641826089,22.463982424796697,0.6110179531852302,3
-0.8289829382910638,0.0661105801894224,-0.37518820464073643,24.292329313422584,0.7518387867105312,3
-0.5842274897079454,0.2630887573523206,0.028766493022040374,39.50309141657525,0.9152385143433122,3
-0.9469355922523606,0.08588088897865553,0.17751892713001904,33.96678106624874,0.5737419873686338,3
-0.6371291298204054,-0.7412387660665982,0.5797362147594858,35.89585317334436,0.7738341172561731,3
0.16608312193938435,-0.24835756198411807,0.31247978649671726,33.27619991755286,0.8556202959014698,0
-0.1571508988150041,-0.8017077754447521,0.21751665025910594,31.749502931309465,0.9302976123579756,3
0.7853434221539497,0.24590808836676348,-0.17643594502845072,27.837438012157506,0.9677827801011099,3
0.6348871234768818,-0.10625160959912217,-0.05238313007972262,76.03724790771429,0.8923199572344662,3
-0.31636529660424806,0.5559699431418736,-0.17095834121963782,28.651367834369182,0.826414199111001,3
-0.48115313313741503,-0.5590590380012603,0.6843320601227663,32.26422648593217,0.7168100426563829,3
-0.2406151836654662,-0.6708678831413302,-0.5399990949032003,34.77594343884714,0.5560550770942099,3
0.18058988502961548,-0.1873355380724644,-0.9885581369160708,75.98089238782524,0.8548685962627607,3
-0.4638727183542475,0.8531707664367623,0.30263979445247857,65.34284801606509,0.9963686522377435,3
0.24829781569826803,0.4208436300248235,-0.5950756327223372,67.38196581893088,0.8683802973660499,3
-0.18117669561751915,-0.16215275041416266,0.7802302726196186,26.285495572309884,0.5083555468688632,3
0.10409436170396047,0.034544339508621125,0.7180926594133121,70.1785925009403,0.7481299890209194,3
-0.12774694172936663,-0.8315739776458033,-0.8465452561435882,44.49158490904508,0.8073233162414519,3
-0.41106848091616466,0.9691517927522262,-0.7872231891718453,35.76938157274333,0.8448371005514215,3
0.8969066139243134,0.33281460938983787,-0.009656815506667416,54.545005011218635,0.8598629178003543,1
0.5272115883195216,-0.42919186307315504,0.21844532553870932,69.33097434900404,0.779054220608262,3
-0.7197736484670949,0.17161678843048866,-0.4501833250355185,66.71912906449455,0.6116801663671201,3
0.7369359517958256,-0.781035267862012,0.4335954333987413,73.39984895486793,0.9711003307382733,3
-0.025137603500972716,0.9316733376151671,0.18983204183774305,75.68793116092664,0.848333233831831,3
0.7891044537881828,-0.6504300242332681,-0.3503517805028906,34.28732428566497,0.6184200184347047,3
0.5997105118946304,0.2960606361104283,-0.9492570239153688,45.4314736501563,0.6611609161351364,3
-0.1495729910615331,-0.5090910749221391,0.5003005625970354,20.8777123523042,0.9609638353151848,3
-0.9550613833597652,0.4351227652970715,-0.5704926683498346,72.7592995559036,0.9437425933536678,3
-0.46264528123010784,0.5536427344805621,0.6689474869252567,29.274329088486052,0.7025732191790448,3
0.08326842932173384,0.3468394578228653,-0.15941947989148963,71.68848874056167,0.5191536109957255,3
0.26695643965229454,0.22899892051038506,0.15415488526353083,39.76323931919578,0.5242486844469691,0
-0.48422462913359543,0.7849381879040234,0.7458974608180038,42.08801539886829,0.6419591454591945,3
-0.7212878518543517,-0.8427465780204839,0.7272460018399067,22.347935269031563,0.8145611096694998,3
0.6698604735985982,-0.33817046843960963,-0.2569608495128535,39.61272738591917,0.792097317667281,3
0.9688043614071042,-0.5034250407383081,-0.5822222145703138,73.30182096807584,0.8169138934719713,3
0.05138036460537165,0.9760279241308432,0.5502921554571893,21.53284406729625,0.8586414859660534,3
-0.656641428303393,-0.22122044066625302,-0.13383959279573765,44.37964838280352,0.5095161267963693,3
-0.4553853469612621,0.46522539848079747,-0.6159160128819918,21.88397778876447,0.5525427975862214,3
-0.9632186469050665,0.36945032776200915,0.8088506846343004,42.255405506543894,0.6797417259136063,3
0.828597613120998,-0.5758375250452445,-0.6037916115178252,30.35843844681747,0.5774299987607909,3
-0.7644978342197177,-0.5220046395768974,-0.9483856636175378,35.13310359610232,0.5376600212722771,3
0.1530329510285071,-0.4374308728939318,-0.9594400524651601,72.65590238968514,0.820482197998666,3
-0.451889558625588,-0.17774544348124155,0.24463071290852856,46.16295323731346,0.9076682387455495,3
0.10835600503158682,-0.5313498686989464,0.3233501214350607,36.42787948411473,0.8763133287171412,3
0.30284077670372844,-0.9606970345063044,-0.37791658988603216,55.36030267703287,0.9085198893045896,1
0.6594836074144033,0.758786113614391,-0.3599780215058732,28.526417589954942,0.8329282720289386,3
-0.5871574564787936,0.9312196627617682,-0.3210121698801145,35.56349644525135,0.867672660907101,3
-0.978008342683039,-0.3168592259368641,0.3603170935177573,52.774878056173314,0.6358893871041507,1
-0.7262287398623855,-0.3229862411490543,-0.8837324179463428,34.25138251088413,0.9965040181420821,3
0.8000372836962102,-0.985816374451258,0.8582327053826513,60.747664244052395,0.5915828272469436,1
0.7477801551250305,0.3605013766607481,-0.5549579116451071,49.48947813557135,0.6072469371946912,3
0.1948262043406166,0.6508797914972575,0.9993464104841845,66.31934421528146,0.6444609159079234,3
0.20103372086730675,-0.7067833992799937,-0.656954612425626,76.89467214334812,0.9876662150532894,3
0.33007334909251096,-0.6806673012656985,0.543092914624755,26.948293360844463,0.994144294676953,3
-0.6492574427531008,0.5801664999428755,-0.5531749101407499,40.07990059907269,0.8974468748532487,3
0.8288238918499196,0.23258149670828931,-0.838306396713492,39.17294377270439,0.8145287992798169,3
-0.16245895021585377,-0.910278884744566,0.7498666487012977,29.070975160235257,0.7600312875923068,3
-0.2337229435010051,0.24509398092456336,0.7175025183817838,68.61818824000825,0.9853104228434229,3
0.037835410565675076,-0.3821645543124679,-0.1928592151007973,65.5927222423274,0.8478114014291238,2
-0.9060680664498899,-0.2625496890583081,0.40479228508085363,49.06552825006394,0.972365064163015,3
-0.6674332624878412,0.5394628365937604,0.11413186536783426,52.266246667676576,0.658275399738812,1
0.4760672328527409,0.6218703853452212,0.7059122273474976,23.572648280149775,0.6668873961347828,3
-0.8344026641497471,-0.19928674632033871,-0.36988806136269115,53.330441139622735,0.9273622970592178,1
0.2063042189327764,0.8943058720127095,0.047344799997970366,67.48049144117819,0.5749274602926472,3
-0.5093017806373581,-0.18707456409585554,-0.029255257590899086,54.42965441503143,0.9729639306480379,1
-0.2214087719160469,0.5436720704602198,-0.29218834748628253,35.918382207225136,0.7537371773317038,3
-0.42261252645860026,-0.032245470871481885,0.7829101291127445,60.05289634006024,0.9632069392918489,1
-0.28865456707010173,0.7950646530441681,-0.668244150674929,41.689305797914855,0.6683963943629065,3
0.438091810368491,0.8155224873003573,-0.7009827209586077,52.69239705714411,0.8579794520696985,1
-0.40575656875364996,-0.8251663842578323,0.1538190706455027,49.25392179673548,0.7414375609863448,3
0.13280928059379438,0.8729866626204514,0.314988459969884,42.8705000579108,0.8134018151227365,3
-0.04789919560180067,0.6510696830408313,-0.6107614913508697,63.13267882364811,0.7521862465695761,1
0.3273423307252963,0.5826214286253337,-0.21856511549075175,73.03256671915291,0.9835578086856807,3
0.873659478649516,-0.5981773206289551,0.8931276859574875,20.312751108615497,0.8460526989069586,3
0.4651441944205006,0.6102384175093298,-0.506765154618652,76.01699115382203,0.6256594843131578,3
-0.5701192428184865,0.7002654693700736,0.33672140423478814,50.6909081649935,0.9548384609525422,1
-0.9376337298774307,-0.4216993310916981,0.4802987873951816,62.043912821795914,0.6470148690775521,1
-0.47547191140034983,0.9045201567246475,-0.10374260106968092,71.33747397055262,0.6858025496504281,3
0.19015586140050966,-0.9002797072016715,0.875051973519166,48.0262215388562,0.5510618490101067,3
-0.8971483730314993,-0.7001814935057207,0.473313470437581,70.09844440189342,0.9499832598980954,3
-0.007267505597527313,0.07516227610302861,-0.0841508402782043,30.657189167312133,0.6430560116139314,0
0.19368569783377843,0.15158494224461938,0.13867040355218796,29.55005206878887,0.6294588089656912,0
-0.33151221836607836,0.2903001666018068,0.38522688685020134,59.44828213136921,0.960131298997477,1
0.5418244074916438,-0.9660617413690671,0.18438036085843645,72.20858033310424,0.9027634312025167,3
-0.7868034937324564,0.9207335492442605,0.7573951676521518,73.54557065216235,0.5705394607596872,3
-0.8497244365283825,-0.910823814531712,-0.28622267543919766,58.624427502634795,0.8846622519518403,1
0.4563775124072067,-0.7138760945531952,-0.40022851988839014,51.52935381255905,0.9565165490268954,1
-0.009017367587603076,-0.971970964947886,-0.5723222210094714,39.88358526179097,0.539255609105372,3
0.3768047928554721,0.13371686658818938,-0.9244340638708097,78.80002493595988,0.9126074974522865,3
-0.13034532279250755,0.8645337678419445,-0.9139720712398893,39.18174119997503,0.7737100259365279,3
-0.5071959335217864,0.33189433216092845,0.7401103862185656,64.65116643389558,0.8345987246894003,1
0.6382046353483994,0.6453149369608546,0.3567862928118146,51.91890799430004,0.7464271694524685,1
0.5988317579379585,-0.9734375930828398,0.3210648308729722,56.510740551520804,0.8489015424526394,1
0.3893929417088535,0.08403059695945214,0.22928563786977207,43.60883303531757,0.5170489308333766,0
-0.4557097255400746,-0.08087404498895623,0.6984382893882097,77.88938752833486,0.8813533616116418,3
0.1804613337381742,-0.002064111558413906,-0.039466148668745094,54.30093956595626,0.5166718489294793,3
-0.2780522061199464,-0.8555736293296241,0.7408216571166006,76.2672578275274,0.7276499238736718,3
-0.8168358533467317,0.36887072213861494,-0.28110994763552166,20.455484970434846,0.5754824965651475,3
0.8346271509244856,0.006440829717268892,0.8534150086781811,54.36023499146726,0.9117871386756535,1
-0.7263627381620772,0.5302976997225279,0.3973139601624802,63.03121338351629,0.6568304545878343,1
0.9004747076416049,-0.029418731876569293,-0.48564572795114547,64.70481026973309,0.7270467723021663,1
-0.10798845408408853,-0.7012367275471358,0.12816984337725024,74.29861290690087,0.7143753706491558,3
-0.6297341423227607,0.29651390815564405,0.06606112297651112,20.264096540227175,0.8862509828423533,3
0.08380189475671629,-0.6552272757896676,-0.7242023565393321,20.019809555568585,0.7405721798979877,3
0.7458916717528166,0.7447891267096298,0.18248581150122822,48.33580764771292,0.8944791675051731,3
0.46444977281912236,0.22623247813848302,-0.3704287525660841,21.75762230032224,0.5367541384013377,3
0.6131222957228994,-0.6855922328860915,-0.8953024663807951,78.47195321974247,0.5957969839514976,3
0.3175667334214347,0.9246761149624136,0.8973123154131297,33.32391047248352,0.7757671248231803,3
0.38455312903570493,0.03673092667064126,0.2829807381285756,48.359883761890686,0.9735441623763474,0
0.6983913031306386,-0.85420309625669,0.753837863741694,23.668257800733418,0.5373789233608901,3
-0.5006639822816281,0.25366580883013445,0.3521120100265063,51.322904970275516,0.5215421080784322,1
-0.021150072713719048,-0.49360218597437955,-0.2860326157197741,42.79736750884451,0.5782753374639278,3
-0.5575811163607955,0.6073869037546049,0.025376144657622834,22.679601732633426,0.8205765644300782,3
0.975336015993294,0.6356441471323813,0.35149352069435413,40.107456001773485,0.6994964583351235,3
0.8881186793732265,0.9578947117093237,0.9205046504028751,43.48616121337133,0.9127761897088431,3
-0.9211463772629882,0.0037390620490074244,-0.49266108175660706,79.3952894764964,0.5359665757406828,3
0.41115034503137693,-0.09008624054452574,0.7499541172482354,32.47315231516253,0.5982070434073505,3
0.8504966348313316,0.5069512108929612,0.8481556105885388,52.68677692220598,0.6500132027324479,1
-0.6388493097453329,-0.7350586873161469,0.3408310293179131,79.23893295191772,0.8133650433443926,3
0.13589046110525893,0.0938310275862484,0.8625332548026756,67.5211524764081,0.8425863451507736,3
0.8309765951760837,0.09249520026170188,-0.20424282504526303,79.60205005292534,0.5621016469818869,3
-0.9321080428284023,-0.8210537543792256,0.9060323520808855,78.09789887961016,0.9719023544958698,3
0.39484053449367984,-0.16403182898617286,0.40556575433194975,49.372372525649254,0.6705220675951046,3
-0.40530198525489847,0.7065695971344039,-0.9159884651623762,61.78255099223394,0.8565843815001415,1
0.8487923907530608,0.7123072439893205,0.8137456636381055,26.626587616469067,0.7621038594738494,3
0.9421164903307355,-0.801524670160638,-0.031054381933614872,46.46892950280811,0.6113790567735533,3
0.8885329782268678,-0.8185582345043383,-0.0793460304443343,68.54111253600185,0.9231141615577055,3
-0.051571566685072456,-0.4746090459961294,0.13293321195926855,50.32011925862861,0.909119014095965,2
0.7240853019786269,0.749532125107987,-0.7012309064575442,62.16194196903391,0.698035926958345,1
0.6890987970701408,-0.7421948298530021,-0.06166790286520274,64.74507979905661,0.7943037928469276,1
-0.36179905351348873,0.4399936052548925,0.6622544334354914,35.20814847457363,0.6289128479679699,3
0.6578309483013547,-0.7976687607737936,-0.9690350817249693,72.54196237655393,0.8449258143731507,3
-0.9259847305690148,0.24627570749565075,-0.4541656793512574,47.589345854550736,0.6545134063102157,3
0.19253975696410608,-0.2878654017617104,-0.9950908271123116,32.61110621729262,0.9220393671911175,3
-0.5399823254245939,0.577827925931734,-0.16857738170030334,71.92495290730662,0.6086925521386372,3
-0.7588662284454424,-0.5326191023492728,0.4566310209874693,45.069128366375224,0.5074017114092321,3
-0.8460935967415817,0.2784036587799197,0.597543658229257,65.01874630278319,0.6342540209839592,3
0.3925775517562795,-0.5286349308482301,0.8903795222540132,52.88198433329558,0.5955262432297433,1
-0.3202500724638677,0.4273205662243076,0.21700922594157301,42.912305134070024,0.7541432198624621,3
0.4495335430575229,0.7473560691214975,-0.49074626669420907,68.59258490231416,0.6018516458282881,3
-0.8692873184021153,-0.7463964017464799,0.8482958982733979,55.068195898676784,0.8815949353597474,1
-0.36941932433877933,0.733191377191007,0.5506315077607522,43.433726145621904,0.620685319002002,3
0.07898258475067443,0.18715050882859585,0.14885696600628906,26.57587222010762,0.8534840899563279,0
0.5814463296779271,-0.745779018265952,0.39128043143787195,73.72671882600247,0.789235461506862,3
-0.36249499413586017,-0.14491628928057598,0.8486327100148583,22.128175120499993,0.9931249282359422,3
0.2517827528740182,-0.6782794130298042,0.4247880569458433,71.79124090208337,0.9999504885046158,3
0.7719554964723743,0.400695777733139,-0.263250984830532,41.59769149298933,0.934763041658665,3
0.23172637636460913,0.5177362688358993,0.4260564045781934,58.36032581008435,0.8799916846493756,1
-0.5340810504927325,-0.7884069594544021,-0.9194436745292243,75.33198343014112,0.6932282070002869,3
-0.951198436886924,0.012279705389288686,-0.22716887633883753,29.102396930233905,0.8766383635656518,3
0.7401977478018598,0.6292501120518343,-0.18735393630884145,54.01702853832861,0.9783377685397454,1
-0.9574611782992257,0.872326083101993,-0.6663235311583307,65.86597174221151,0.5116887876977221,3
0.7494033453683988,0.027035733483540048,-0.9538290388964596,65.45502996314345,0.7689573500988693,3
0.05787426805442397,0.9005584472228141,-0.7332375267245144,51.53791487597024,0.6089991521942173,1
0.8781353970257924,0.07137794091205962,0.3092429915941102,57.484367594387486,0.7789381579344252,1
0.5975664715473308,-0.21161901080018408,0.6045776327273751,65.45161964797067,0.7332235448794455,3
0.9958682210666749,0.696406257105791,0.9764069854539483,70.4616582654447,0.7878842907761422,3
-0.2985763690965797,-0.014034579083821885,-0.3072729937830114,65.70878581255182,0.7754811107093621,3
0.5343765778622538,-0.05619497887095393,0.19875844452220348,41.24029659087456,0.980053519584281,3
-0.19613817278151569,-0.0193750211803434,0.8742899336302439,79.80358406346399,0.7760930544673681,3
-0.04024875939218231,0.6935700037394907,-0.6659164373236948,46.07016162315826,0.9231160440624336,3
0.25501092643674017,0.6638830833761042,0.43529117268548534,21.467882165536004,0.6599101434004233,3
0.7473542283726775,-0.1929600151195776,0.5099574662983264,41.75701709512772,0.7190503443955245,3
0.9681669383985902,-0.33340028025894997,-0.8220489282613233,27.666977274430593,0.735206738022405,3
0.5365468277290364,-0.01614395192174145,0.7224987703661301,27.2865569437025,0.6393640216676899,3
-0.16446643566533248,0.14554501947421805,0.6262100942216877,36.892102406413656,0.6898951307389776,3
-0.15728599544585964,-0.5233255787440061,-0.9331939868451311,23.20252965063565,0.7992565397333876,3
0.475164603177783,0.5879101694311812,-0.817831170239897,61.310731304573785,0.7900938816522662,1
-0.5224457084633953,-0.027034468535154232,-0.9017462122162954,24.439333052114307,0.8182176722867402,3
-0.7790517737372107,-0.3319089031600808,-0.33051293640127555,32.19737332615737,0.6759089577100705,3
-0.2907556847184469,-0.7863580140720188,0.018577981359852336,25.57398286964716,0.6579157475765285,3
-0.42552201669183654,-0.5223096791927861,0.06469545590925763,23.790063854181863,0.8058089413770815,3
-0.4073837590880198,0.8985623435119674,-0.4646664804611147,36.065099932372505,0.5664308742137625,3
-0.5327844979001801,-0.3898006263609468,0.8231937731205483,54.313938059622195,0.62651577176607,1
-0.9158136207272762,-0.6622814212659294,-0.2634744202561736,77.8811333868105,0.5210638684764977,3
-0.9642521305331724,-0.0786544166900136,-0.908899688069295,72.53339926097638,0.53630542629804,3
0.9754447794720631,-0.3858245132795026,-0.39954577691722726,72.55603552671948,0.6216916396303045,3
-0.1444537325282753,-0.9296814994576117,0.06221884508831099,30.564022162259455,0.5097646401484595,3
-0.23134670568063664,-0.3537095654411655,-0.18355635482353594,35.89443160986921,0.6227052960437307,0
0.3592945653861397,0.08821724787893714,-0.4523149618014817,24.58359900771834,0.827488161531013,3
-0.5634922242698717,0.10342474403993385,-0.7373535004713652,66.7081003949111,0.5305535392344665,3
0.8999223679004507,-0.2868821576462226,0.6383290001924595,24.188978089133716,0.7183683388973205,3
0.5726900288311041,-0.10539448749479874,0.9922904842483837,53.4017402492512,0.9565543934597747,1
-0.821177995375481,0.9310358364695328,-0.3409157329522359,34.872534339437046,0.8956424144627004,3
-0.16483844843014328,-0.24530304553937676,-0.23675791164679216,34.60673804172468,0.6527187511474286,0
0.7582366151243294,-0.48354637348003404,0.2360750493539141,79.44350331485632,0.9624027395958235,3
0.8894640445828206,-0.5130659118664798,0.43688294947108264,65.40678841871224,0.6648232483738624,3
-0.06519697750026054,-0.08447077459173169,-0.21594093039281748,70.21636149746301,0.5362577481687812,3
0.2268227784214154,0.5190402974338881,0.8098590339636305,54.31896112064076,0.9970279783840568,1
-0.6659321078158495,-0.5880236316230536,0.12000797845783673,72.26085724362495,0.9350112635945859,3
0.9823372522739531,0.4185922542815361,-0.09921984718813803,58.729432349981174,0.7329663916505462,1
-0.5366565972331132,-0.9577003533011674,0.29334550631981027,76.77042228778072,0.8331882620962019,3
0.8854635482702513,-0.16213404403210796,0.9056076964983464,36.880315162738206,0.8356140389283351,3
0.2992932979847369,0.5517301304055737,0.589104588843411,55.719172746973705,0.5972411153652302,1
0.21547358975771824,-0.3225340884511372,-0.9199737389297513,61.407880876213525,0.6000243165768162,1
0.02537702203301717,0.12747420289079892,-0.33538017852008073,43.5762383016684,0.7347903516759129,0
-0.5386603765644826,-0.5900415343481784,-0.058910630097554595,72.7824789442432,0.955786570068849,3
-0.6469439359889835,0.4839907822523446,-0.3709648555817895,78.78818978624926,0.5049968874292854,3
-0.5590275818596493,-0.8954417934624808,0.40037512166091305,49.62616948235969,0.8912528179746797,3
-0.627123475711491,0.7050852897510007,0.6525382997251621,43.43843928826034,0.5287633918573271,3
0.5591689471335066,-0.6036072271566637,0.46269019037054315,48.31627571338752,0.7391110574415589,3
-0.2997494816665398,0.7487960634166615,0.9786665736565505,71.16420474391589,0.8189364165367382,3
-0.8843146468732073,-0.29494151739896535,-0.4549047042139418,58.72810553109006,0.8433796335412325,1
0.9382052602816227,0.4453671489489732,0.7499789900488429,22.686342351085706,0.5292396318079557,3
0.7675717699268514,-0.36154940442762307,0.5332453303489724,52.53019462674289,0.7093018086919841,1
0.8555045663904259,0.8118233424692951,-0.2756424848837078,21.03800736445819,0.7919186302511623,3
0.9898156452928706,-0.7467257489632513,0.46824908731393733,66.71212226020432,0.5330227686530035,3
-0.6522095015610254,-0.6429604214548026,-0.7918480871635061,39.698736412547824,0.567547278297655,3
-0.2075159621946825,-0.01393974968239542,0.5786669646811047,48.32044892703976,0.8318244947520193,3
0.5164769514081826,-0.8361231219237077,0.06466120517420526,67.92068635445793,0.7608190982953258,3
0.39204123610758446,-0.6080396305964761,-0.41541965458149366,22.786929037145693,0.5809143306341453,3
-0.6922081873202899,0.8875327644240287,0.3115546035683603,29.512492135496625,0.7676196684573667,3
0.6316662499812356,0.9529793222957743,0.283239997428818,43.87762258670689,0.9563461867222078,3
-0.5511188563266787,-0.2474813413391561,-0.5810275545608006,33.795509812733634,0.507793792387682,3
-0.5523647703547538,0.8465720420278713,-0.9392051703769477,40.274085546503784,0.8213168867429272,3
0.07394884578682714,0.08964935134686347,-0.13275482619665224,79.8904842735479,0.536825217302671,3
0.1858798696834063,-0.4605150682524659,0.13902373868884244,69.52486625442864,0.5032247214823504,3
0.16017241567562235,0.4047974421611973,0.7532105567411969,73.03410889760652,0.5753272443303169,3
-0.8170263252044903,0.3178036131497144,0.8564335912951888,76.22327801394653,0.7114533159269596,3
0.7549217252607607,0.9782506382174667,0.0576104363135328,40.456152818851734,0.9011719994909765,3
-0.46879991482258787,-0.4699054251814334,0.5076069675370898,37.82461746778836,0.6408927483022793,3
-0.7409701574343917,0.34411900532347084,-0.12139345534400614,34.04374955432449,0.8128366061943793,3
0.7774961597379544,-0.8959524899411062,0.492164313145786,69.80701467848735,0.7055783189776533,3
0.9113029964595067,-0.7727079226065612,-0.5903969501216662,60.773111737111094,0.617165895983004,1
0.7242552345309012,-0.9921632500978135,-0.25787053039293717,34.170318948972636,0.7571235571414293,3
0.6190321494497562,0.9989213621193462,0.2684559976272296,42.61962975262729,0.8987322451863116,3
0.31048396127804345,0.6045473942949555,-0.9636840687858423,50.40270583596789,0.9162461850280721,1
0.10171474121827861,0.5734460294670816,0.444922620677908,51.68840343642522,0.9232597659386184,1
-0.8260264801771797,0.019452150576359406,0.6710710025363336,73.32366371310289,0.6692789062774898,3
-0.1830935738586026,-0.39986583418912014,-0.20171667781209712,42.83396797683298,0.8967280323578766,0
-0.25462296597537204,-0.6974714310746482,-0.10411516564567136,74.51144183003075,0.6060892275544539,3
-0.4804924324793476,-0.4306505223070727,0.702564424433062,46.48205361918738,0.8692125506214416,3
0.4468402273771699,-0.24805755614172176,0.5513092706520668,64.78236048754123,0.9741922131363083,1
-0.008248529842458385,0.5126201939605881,-0.42370102193325,75.81525919910337,0.5068719173454785,3
-0.8379075681847041,0.07932357780630483,-0.35204778687692206,74.45454223779598,0.7201819655893991,3
-0.5596335961003773,-0.8450327468890346,0.3577564647811933,23.41717203774087,0.8238854942070023,3
0.36651752731919185,-0.9639419820821755,0.12639618489632243,32.34225769859419,0.8508878852437765,3
-0.8477382810193996,-0.7953356409318737,-0.6755408578070061,48.61432553193651,0.5880438791346011,3
0.7024138280975374,-0.17900257260524133,-0.3801401815416672,45.89325739718644,0.9860916376192964,3
-0.00970694597205135,0.8663858340980366,0.7999665537573082,58.45349989023242,0.8076326839854865,1
-0.038826845346704,0.2748049624184432,0.37634887344452683,76.68254304952472,0.5821703006141339,3
0.1848155693190352,0.6036517997510302,0.9719486353710389,26.74428267667693,0.5102612558562576,3
0.6493619318502983,-0.06725081099090291,0.5340250599615388,47.111519908054426,0.891632099394888,3
-0.3043815841956139,-0.2766678336099144,0.8839488642871804,31.544662273228358,0.5398523697227295,3
0.3560323051181271,-0.7831992545667545,-0.5676228522590492,73.64645590387684,0.5705254605351182,3
0.13146392799158213,0.7518660443724099,0.5429697496338515,77.87481114809917,0.7874150134278453,3
-0.46594345966115736,0.5663200580558057,-0.9595649597044051,48.722100913421,0.8017527517248099,3
0.757259972710316,-0.6637638048045498,0.34152004342306785,26.240617863688446,0.8434435592961993,3
0.5948520432138562,0.02452112775252102,-0.06143544375951726,67.11768000336039,0.6967570063318104,3
0.316903669316851,-0.02525038415751024,-0.30647985615986273,61.82848102954394,0.8869493344834114,2
0.7011634581884838,0.2501831053730572,0.7248087045861782,41.28024959661863,0.9871792998079443,3
0.7345884019196047,0.8923737879825224,0.7085353853150613,73.24444843813781,0.6355474715399415,3
0.4167259534300696,0.15954288352495927,-0.9553965902027128,78.54991338696243,0.8515143082689729,3
0.6740266567273441,0.08043453355723718,0.219010244898862,53.471230947811726,0.9642343261975784,1
0.3949429233385673,-0.8993541341306721,-0.2643355513580872,53.94367468065754,0.8431433813085214,1
0.3602815435206008,-0.8741850479639521,-0.1686779969991017,37.85081030682667,0.8405547493221297,3
0.2372227564303686,-0.6253064173464222,0.6640814784375519,55.070362158998854,0.6118862845426033,1
0.5054332791152825,-0.9350584566165034,-0.38032045694464345,46.37853923149079,0.7675651001598465,3
-0.6827897894138526,0.48670579114002477,0.8860976212752403,38.131461615683115,0.7812614218022901,3
0.7617415183978569,0.4466606079879263,-0.6407323472557185,24.03111179143408,0.8500647812279765,3
0.743687055490464,-0.7278875311367141,0.32544484673635554,35.1624715825475,0.9984107249480914,3
-0.9415054339308817,0.6721578015905618,0.3442101340275294,31.871278980659866,0.516821911271881,3
0.6516335011295253,-0.690427930307776,-0.4956096771441636,52.522519073236936,0.5326163306337435,1
-0.7422602650531096,-0.3976488260052824,-0.35049878206559604,56.10020130581563,0.5389750347154594,1
-0.3297622914817162,-0.50204620167727,0.6695969851598809,56.514303458360985,0.8714895672444785,1
0.48701651258321554,-0.25538580285390444,0.5236105099099049,43.29086006274075,0.5681768975553787,3
-0.6784802079033836,-0.49067246822007626,-0.3418082393704809,45.27378402112976,0.8112259372451727,3
0.6359340482381244,-0.02209814712309588,0.06791309386986777,70.05430577843839,0.6623344389467292,3
0.6642683559154838,-0.18518423729062916,-0.8766394074938091,48.573968811029744,0.7286599781053555,3
0.014935467521672408,0.9731389815586531,-0.5825082352027415,79.26639992822734,0.607831579908707,3
-0.9872282565663328,-0.8881472997435487,-0.028358882279201802,46.37703380053189,0.9330532806522711,3
-0.42592373365017444,-0.7156372472252968,-0.8280525294415768,58.97485667707034,0.7930751620815132,1
0.2338538367514844,-0.894348212182795,0.686664709783875,23.021779939603746,0.9722816317911263,3
0.962372356054847,0.25168238996475156,0.43601242021529574,59.20039546512865,0.7872981248521648,1
0.26362705403333675,-0.8909814451725608,0.8872673412969896,71.08558366490037,0.5619540152984733,3
-0.4803928378716804,0.6728794747522466,0.3869338119280543,76.54747031199777,0.5854352169192377,3
0.2680114061992227,0.023877261363855595,0.8808027445243711,79.83923669838623,0.9945369881839237,3
0.07997075943171095,0.054015249163067436,0.10902511138193005,36.930718738953985,0.8627825986654338,0
0.5596907903022872,0.12318901542438843,0.20043722212393877,54.52220388954301,0.5246393750145448,1
-0.7860387223460832,-0.6583725873875785,0.9539421092525218,47.04307913192884,0.8518905025173324,3
0.522055805004056,-0.6046193937710249,0.28425829372852074,53.82904883451026,0.7060865234048058,1
0.08253315735222055,-0.36236535425399063,-0.9384268622785068,29.4471774313908,0.6536041934115953,3
0.9259840077179893,0.18699283164370284,0.44760555326104656,71.36897435575649,0.5770303968652671,3
-0.3162556679226278,-0.579764448119571,0.8109373842748313,74.57413660067525,0.9199519772782828,3
0.26524378626789624,-0.7673365457334775,0.5911604995886532,46.979699786775356,0.5319206894945503,3
0.8640562110200349,0.9402337728368644,0.16766654525084523,36.82579169441461,0.6449177311898202,3
-0.7949805440186415,-0.9560363703807542,0.34260702618703265,28.45000565918074,0.6531914469128521,3
0.8744569744729023,0.6053948106720433,0.9803835785033435,61.02588948666826,0.5804526419817502,1
0.3757714446016267,0.5760702991500442,-0.8186758229813234,38.733910377244115,0.7540924416434351,3
-0.8643258817896562,-0.405571772309808,0.33448965726647906,74.57231419480331,0.5058513134054463,3
-0.3980728661063675,-0.7287467679853732,-0.43320461085881234,60.2607484906922,0.6504877577052046,1
0.41634417729056317,-0.7087427065891532,0.2801807931723401,58.74111951045444,0.966814722016532,1
-0.8652987970624566,0.394863234474385,0.21524715176787756,53.56412695389445,0.6552647846710029,1
0.16434092035254655,0.2856131821723473,-0.6930863357836758,22.74658036572354,0.6802296935533758,3
-0.30823388609408653,0.5654913485027735,-0.5865067085195217,75.91534614113522,0.7365825241170358,3
0.24183103553495422,0.8749623447982093,0.243259156086427,57.676249597967605,0.7808466874257374,1
-0.9085159323749743,0.383854726533184,-0.7435401053924517,79.64371900298661,0.9043543224103721,3
0.7430736123047526,-0.6882969268971131,-0.4696382497393543,52.241384286373226,0.5951606115780088,1
0.9469779383547938,-0.5131147664691786,0.6704910954760048,62.60665351437279,0.9358731885962785,1
0.937755710571383,0.6843874617462291,-0.3458169879967228,23.37257347197333,0.8787746785719447,3
0.4993036634858494,-0.5813878483315829,-0.02387968746067415,57.90417060940465,0.8613251673307776,1
-0.7398275197387361,-0.8549553660910372,0.8822806702916806,65.87897669542144,0.5434022868573176,3
0.5165263918580452,0.40656010808450094,-0.5457018223261074,66.71085769115344,0.5108203449872923,3
-0.950826167082397,-0.19494728901971592,-0.22074796528397922,66.20669913381712,0.797006350454042,3
-0.9557528969420055,0.8400801050918072,0.21291555108709126,33.57695763762006,0.9315669812615806,3
-0.3527795617009175,0.3005101421873231,0.5106778590079444,78.52390865631355,0.792220732070318,3
-0.0227136191906685,-0.8191620444166785,0.8033067734254102,79.71092723749632,0.6066174327227654,3
0.5408148356155864,0.8957131345073215,0.8309459751470303,24.535752509696074,0.5452599489746066,3
0.3665907532130104,-0.4828854727195082,0.5532801487452459,76.18678536870544,0.8497982264088675,3
-0.10819458724650333,-0.3255750191874285,-0.5433383268133791,37.36695165826216,0.8608851386589047,3
-0.45274666743666825,-0.19547917263291592,-0.9503813399148684,61.35704490505789,0.5862658503435543,1
0.9942490003154223,-0.8975514071913735,-0.2324521392887524,40.28665524416793,0.5140951577482682,3
-0.1476373955280541,-0.006969155538790295,-0.7169022980243533,78.06525940238728,0.7041417566115985,3
-0.09722595134064904,-0.7533630178494155,0.42077529487659615,26.090231498212127,0.7913593510665111,3
-0.6727523576166616,-0.1980593466232965,0.3222611736514336,49.86480901738256,0.8530012047835955,3
0.5896190974998587,-0.2985804240158314,-0.9120567167570903,45.68286751652448,0.9049725045764514,3
0.3873644515629773,0.5456801668530067,0.6731875582619022,39.561407136679094,0.8052687136533662,3
-0.5584607744224792,0.6063410232654622,-0.5025134674176355,58.73203945280892,0.5554403042992425,1
-0.8352379087683146,-0.693174235221824,-0.13554584901791555,27.86334460530005,0.8412908360712075,3
0.3609986041494262,-0.2668976252415476,0.33586747091148483,62.99974508802181,0.992088321447441,1
0.30902242856227047,-0.2532936779363366,-0.14116242629549336,78.83552742828724,0.952792292298702,2
