Power Factor,Bearing Temp,Accel_X,Accel_Y,Accel_Z,Health_Class
0.8123620356542087,57.55448641942095,-0.252718363066603,-0.0006595125418931147,0.45999662197994073,1
0.9852142919229748,63.1404961562515,-0.33417580753719345,0.4934935450251885,-0.6309760088025769,1
0.9195981825434215,89.81831752415262,-0.6476921749942799,0.12533356131266626,-0.30672061126022765,3
0.8795975452591109,53.80030702419245,0.21453334020297588,-0.8333948337764072,0.3265612737156365,0
0.7468055921327309,90.875477936852,-0.04675167898274224,-0.6288395264328892,-0.03582131095104013,2
0.7467983561008608,36.1694101683684,0.7314019846480073,-0.5613436319381617,0.47714207726978763,2
0.7174250836504598,84.37589060460415,-0.9357808390358835,-0.4842714927103102,0.9224158024457194,3
0.9598528437324805,89.32833431383155,0.2877358551102527,0.13080678390100853,-0.766906624569605,3
0.8803345035229626,42.72723569861371,0.5258977570231222,0.007931559650786957,0.41913543279612187,2
0.9124217733388136,60.12425726605403,0.5189731383766141,-0.5936799232715821,-0.539311688735771,2
0.7061753482887407,41.584984226455894,0.7721479341910502,-0.8648903130886259,-0.1710465451848615,0
0.9909729556485982,79.46228902959524,0.45806748565898814,-0.6571355910505638,-0.9342745484097204,3
0.9497327922401265,67.47434376431598,0.8556201232953926,0.9687626252372066,-0.7281852354146021,0
0.7637017332034828,74.47263426958247,-0.3346868003582171,-0.06290610041705547,-0.36044542190220064,3
0.7545474901621302,43.75408768693478,0.006418833503086141,0.7346910094042249,-0.3160283894240301,3
0.7550213529560301,44.82221034366937,-0.9718406734342186,0.6975049333376866,0.7991704329241915,0
0.7912726728878613,32.904812785693444,-0.9860848253934176,0.023039114925747395,0.4836258185330302,1
0.8574269294896714,52.54472746370108,-0.5197467590969602,0.41337541692108704,0.9443659363740822,1
0.8295835055926347,69.18212629335724,-0.7983856057218295,-0.6144959791745754,0.19814302067048106,1
0.7873687420594125,90.05544397981302,-0.4795772641284928,0.3767934098538166,-0.5165725358173641,3
0.8835558684167139,76.68492132210764,-0.6459134109432052,-0.45523084147342097,-0.3446899401567143,0
0.7418481581956126,60.4777426379826,-0.9429599503227035,0.6641241935083015,-0.36032815341606583,1
0.7876433945605654,96.71840800758964,0.8186082928120988,-0.8325517337821802,-0.3470113446734968,2
0.8099085529881075,80.34716404030823,-0.983553737222217,0.546277345770555,0.34592834622363133,1
0.8368209952651108,95.1115642003785,0.4721642886741708,-0.8001261868627609,0.06161585618083243,0
0.935552788417904,66.9311581290516,-0.6957042261609669,0.7623784737886179,-0.22915164382671138,3
0.7599021346475079,48.123299235519774,0.8244592439992,-0.3915909637299926,-0.7018204625425668,0
0.8542703315240835,33.69786804553054,0.7855918791797716,0.3087867296611495,-0.9557216741157082,3
0.8777243706586128,80.82593960386953,0.30780229273851467,-0.024995442759440323,-0.5623306448246148,0
0.7139351238159993,38.491209860387386,0.3444682996012103,-0.26739370947532204,-0.7850571920626375,0
0.8822634555704315,51.1942589790377,-0.9893217160606229,0.2908836663669929,0.5708900617044788,2
0.7511572371061874,67.27296355187282,0.9697431322272041,0.8950459611024759,-0.7750040843722292,1
0.7195154778955838,69.50916114458234,0.7556652071516288,-0.9174605052507563,0.44845647461367233,1
0.984665661176,72.04082378909952,0.790212451460184,0.8377057117662086,-0.22868262044783472,0
0.9896896099223678,41.63787312447904,0.3184890741017439,0.21816331004202705,-0.853243220512448,1
0.9425192044349383,56.58161833751541,-0.31042614269092694,0.6146286015381046,0.6254600988631716,2
0.7913841307520112,73.20359589818767,0.7872972981809616,-0.23225009313144485,0.1592611404732267,0
0.7293016342019151,97.88732052436494,-0.4169661436976153,-0.05631405032477255,-0.5284769742728539,1
0.905269907953647,80.93417963897821,0.12542308668440572,0.737701503602328,0.7893623486653358,1
0.8320457481218804,94.58226299657704,-0.8005380553122352,-0.17030406038035384,-0.9094833722588971,3
0.7366114704534336,83.35484408199238,0.8439112602655003,0.06931913349816998,-0.5963607836044742,1
0.848553073033381,71.42018782246802,-0.7184590844575733,-0.9596101538313342,0.504093855611722,1
0.7103165563345655,43.44163583954412,-0.5502063885391855,-0.6828039883239154,0.4187558606197783,3
0.9727961206236346,76.66799563247591,0.11626831625642997,0.2833730159495995,-0.42145661255104394,0
0.777633994480005,73.63656961719349,0.5281860004259631,0.43395380212775425,-0.8759502492944338,0
0.8987566853061946,72.17284193200865,0.2387026118725979,0.16520187356899885,0.7161561444498876,2
0.7935133228268233,64.28501075917686,-0.5357321743996877,-0.7133799274487787,-0.37260472386019483,3
0.8560204063533432,67.0059622792493,-0.9981139149450193,-0.10918914284433034,-0.6085731701434696,0
0.8640130838029838,53.410976898267286,0.5143011606148784,-0.28981046727362036,0.03212364472195417,1
0.7554563366576581,66.35188848496122,0.9704146518221874,-0.00867731192982335,0.8204543985648947,1
0.9908753883293675,43.82891339749348,0.6198262406121808,0.7406580691081885,-0.9129068443132493,1
0.9325398470083344,86.36220781522638,-0.07958676368676931,0.5517228773173037,0.5316081760617755,2
0.9818496824692567,43.004386828909546,0.8075345227982131,-0.8320209972216821,0.14494645587741783,0
0.9684482051282947,35.94764029226265,-0.18030465376329996,0.7806183955491286,-0.14910176689636612,3
0.8793699936433255,60.537221845001014,0.049868168486935094,-0.05646569770035281,0.48816088821012005,0
0.976562270506935,76.08152076542433,-0.04574046520863351,0.4877242897719969,0.9316488488832646,3
0.7265477506155759,60.6401777453479,-0.1047522546689501,-0.7199215374712957,-0.541587577674618,3
0.7587948587257435,49.3727892365916,0.5503815385878115,0.34143905141409614,-0.7127052698557608,0
0.7135681866731614,69.07198287233085,0.053537814538983985,-0.5273479647810841,0.8257634904453941,1
0.7975990992289793,54.290163478854,-0.36656575594956786,-0.12323820571813693,0.3379061549146074,1
0.8166031869068446,95.30073830886431,-0.48368366468304336,-0.9662742598357912,-0.12402795687606805,3
0.7814047095321688,94.58515977225005,-0.9245053660651332,-0.696778724139048,0.14651914052856618,1
0.9486212527455788,65.16602739804668,0.16639032376609197,-0.8158390137527605,0.4912278103524881,2
0.8070259980080767,52.95187958127809,-0.5400771691979316,-0.5205116541234831,0.5460637974114344,2
0.7842803529062142,81.59926897696474,-0.7037321559672338,-0.7999638199513555,0.8397883616379291,3
0.8628088249474746,32.56990604381466,0.3076599276553553,0.3838200532391238,-0.14631442220875468,1
0.7422772674924287,63.233830423055586,0.3624185156430977,-0.9419201955815613,-0.41317817996121,3
0.9406590942262119,53.54263759892335,0.5043097845153319,0.23548100124999594,0.2793285335796838,2
0.7223651931039312,94.43751195717883,0.0071537926771829685,-0.7185843383488515,-0.1685442014409393,2
0.9960660809801551,30.840211909087778,0.7881092104077732,0.8903229143557938,0.18919690789795585,2
0.9316734307889972,68.69704130028444,0.8726855067964556,0.8661881462197085,-0.16002840308809962,0
0.7596147044602517,81.84645067466383,0.6147418795849788,-0.5489937949580748,-0.694008426643651,2
0.7016566351370807,63.951259126682885,0.27118696401637443,0.22884259644605898,-0.06114649668208316,1
0.9446384285364502,35.97821211139052,-0.39255809281762266,-0.9439893610550831,0.3818356438820656,0
0.9120572031542851,98.07229730195316,0.9658898432404424,0.8635770861023482,0.5985676153352997,2
0.9187021504122962,66.26073019632685,-0.4517276656161233,0.045974616383419376,-0.013347446406906327,1
0.9313811040057838,72.99303710233079,-0.5946861560191379,-0.913553697164442,-0.6695242195791982,2
0.7222133955202271,46.56268478952551,-0.11569177242683448,-0.31500001398372524,-0.17062458070113684,1
0.8075397185632818,63.844865957476266,-0.8863188585752231,-0.8463010762775316,0.5725878576833965,1
0.7347607178575388,60.040464437082534,0.9569889293435816,-0.21411112125328025,-0.17428145876585432,2
0.958931027762678,35.24270894013886,0.17686711283284962,0.33985268432264615,0.39306158720844464,2
0.8869894380482674,37.431224748322705,0.1139041833283505,-0.060220183917120806,0.014427363356179557,0
0.7992694074557947,88.62307637331422,0.3115925597994398,-0.23255565056109107,-0.5175537497812066,2
0.7190675050858071,46.78739665446132,-0.0059527044455867095,-0.7616859089190704,0.5923010160461486,1
0.7932946965146986,43.647079004904136,-0.9358729658109168,-0.5101219086126874,-0.8315730918586259,3
0.7975549966080241,65.34380158750974,0.22462257768079352,-0.7997134245232977,0.04978056551030119,0
0.9188818535014192,83.81229919537591,0.4323477539128613,0.6149974633133215,-0.5822179315131901,1
0.8912672414065639,34.33625630052916,-0.1665018787518937,-0.7295203440305549,-0.8658687429172487,1
0.9661638227728979,70.37655437467791,0.5145911441423858,0.190746733097787,0.0058678741664977,3
0.8416644775485848,38.344730998840134,-0.5459974013231588,-0.31451917282230824,-0.0008756881301528185,2
0.7358782737814905,32.55227355779329,-0.557446817867632,-0.548043230689633,0.4138018033514417,1
0.9139734361668985,33.692076651355215,-0.6771660246248521,0.2789368789842075,0.4895013861038098,3
0.9282355145850693,88.39148757459088,-0.2560104804216763,-0.08599538124611872,0.45558297738579356,3
0.8683831592708489,38.258073853964305,0.6940240707781671,-0.19970906543088174,-0.18088253416648992,2
0.9312901539863683,33.16059550886044,0.6558241242981286,0.18570400978444312,0.2633795744531251,3
0.8481386789093173,60.65299210000386,-0.2343515840729924,-0.017464743019998563,0.1538904852879206,3
0.8568198488145982,89.07954303594173,0.17823747196047313,-0.39303158289687845,-0.1568764877661608,3
0.8282623055075649,48.368586354251136,0.44163263294983124,0.11812257553050332,0.19442538837198642,3
0.7076257380232285,59.519883226814144,-0.517586450743954,0.3389971531013891,0.8944957534125251,3
0.7323674280979913,32.79457727946259,-0.6637178282105058,-0.9466136828262914,-0.6142125126372453,3
0.7094287557060203,61.43549598944131,0.944191986424622,-0.06825654218464927,0.8115441915710526,1
0.8909231233791342,70.43291564459935,0.23511462641923697,-0.8846334308329125,-0.8930889720336033,0
0.794306794322898,69.96349376265013,0.9628314436673278,-0.6271891718637779,-0.3832215741966787,2
0.8525712073494108,53.26986845220556,-0.3244880257355418,0.12101746815594616,-0.4237095027769435,0
0.9722699421778279,52.08732264641949,0.406063399948263,0.7323778305311615,0.2527302157618114,2
0.7747876687446624,37.46365332556185,-0.5547927269175246,0.7656113583769697,-0.7375500964454194,0
0.8231148769106889,55.675882445238784,-0.47759965745217414,-0.8601119797227375,0.7646952236795075,2
0.9266653415629146,36.96462682110753,0.023804242539247955,-0.16178982742658676,0.6571028169300825,3
0.7686394496474867,83.66171612984361,-0.36076374898385755,0.16601296600910254,0.30413163937055554,0
0.7230939729486379,97.63920084237301,-0.6647568723188311,-0.7058601908993132,-0.08317233641560451,0
0.7869254358741303,97.90521196666948,-0.474238596021348,0.5308644334895434,0.8659120842841568,2
0.7483663861762013,90.55497695627757,-0.9285032110682707,0.4884705168744776,0.6614931094411118,2
0.9789092957027719,72.05545045377335,0.4088472429549732,0.8066820274135893,-0.0013697038375102277,1
0.9424361138693251,79.06059880707159,-0.015766685828276783,-0.983027975833114,0.4037467089086224,3
0.8900211269531271,49.96440618762898,-0.8115138671909488,-0.5666315120219947,0.13385990435936912,3
0.9614381770563153,74.15392941208344,-0.6566120137430176,0.6543734284906435,0.17588447677652908,1
0.9411016230697343,61.89546846079142,-0.794930923774712,0.3411601016538708,-0.33804786112505747,2
0.7559710176658108,63.74121378438527,0.22518561655175295,0.7887797073969816,-0.07583079075020649,3
0.9677676995469933,83.04435922626107,-0.8115792727750124,-0.885640690939467,-0.8437571384205116,2
0.8618026725746952,49.73428489180762,0.5085646660704322,0.19392793143288567,-0.285302616670815,3
0.9422320465492188,52.26277281861639,-0.9589781613592177,0.13809314978734832,0.3916570307243039,0
0.968827389977048,94.72492537900456,-0.5012484240082158,-0.9286511672789353,0.9064320610123726,0
0.7954010424915592,33.935700639568054,0.7813333517838144,0.027044153824967054,0.9261282255260406,3
0.733015577358303,63.994400888933825,0.43706263624449204,0.21904062261984847,0.11144573824978332,3
0.7683805487625824,93.89605602855032,-0.8540633341486246,-0.6174136515957855,0.21324450361916414,3
0.8281323365878769,72.725410547271,0.6422522089703595,-0.45334083375067413,-0.628557628998065,1
0.9454044297767479,68.24849519484926,-0.01392975691959042,0.2806946925954741,0.39061621618706144,3
0.958219174976903,47.482092546054865,0.6935660543376585,-0.06339810480008334,-0.8586824146512275,1
0.7020856391593572,54.02928423451138,0.2014795489007868,0.7160273151366536,-0.43062862840111094,1
0.8532241907732697,89.6433891063285,0.36366606406571744,-0.3152364679816233,0.33672669457088444,0
0.8252233009446337,69.14526922379207,0.9870031207914163,-0.4666806832235977,-0.3793797369130214,3
0.7666323431412191,66.03195356297459,-0.5353289081519637,0.9697318806896855,-0.9003062517710914,0
0.7359596102001048,36.97057994780202,0.2478911495227767,0.8222715402601668,0.6637408187019276,0
0.8012845514210883,31.121970951858618,-0.07935721988520328,-0.9420145100020403,-0.3793399857308739,1
0.9828729111737557,97.45796320809343,-0.9210960941546171,0.5414572306131318,-0.8737895502826432,2
0.7969608796062265,56.38903171007891,-0.9710587169942699,-0.7793304523495941,-0.8504236709942696,1
0.8556371865230098,72.2249143469653,-0.7615428443642827,-0.9450296103412581,-0.49648240242249275,0
0.9109056876685533,35.58005512310995,0.29818348107709625,-0.4526089680673022,-0.6439681055569475,1
0.8090888807137881,77.81800000061327,0.1343261758267844,-0.4613082418777914,0.5486002355603017,1
0.9915346248162882,95.27966960941727,0.10685912232745487,0.6386375246939293,-0.35663190666593114,1
0.9887341884826334,70.29656770981939,-0.9362864749434798,0.4213344918856703,0.609391570079665,3
0.7755346887476092,38.82807256627874,-0.061394007279985896,0.9632188546640286,-0.6523080043536944,1
0.8491745517677156,70.72050692314338,0.8492456356850571,0.4230258006236369,-0.014241640911832443,0
0.7902634929450308,83.64430491732566,-0.2048162613787068,-0.16348889348790419,0.3760742671062576,1
0.7854521483132403,58.449157560181305,0.24984493957691267,0.3978553218904337,0.30398170773170974,3
0.7110660842063597,91.58864235590275,0.5596373512462871,0.9989181343728042,0.2022588198605375,0
0.882869300193969,75.40780673501551,0.5678505582837752,0.42028376512505616,0.8496432038623396,1
0.8508037069686585,92.94742428024418,0.038560164790542695,0.5233627119606366,-0.5429497045865113,0
0.7154436253749967,73.64537178731361,0.7159038908046726,0.8767300303805188,-0.012561591075789247,3
0.7835939392709834,39.19015804033769,-0.21724381327250608,-0.7726974773766333,0.7679851001448175,2
0.9724797657899962,51.67841977736324,0.7773864295695967,0.4095685868954537,-0.8442124688096859,3
0.7718685672000917,44.125646377671984,-0.5195456672089094,0.7016119159348979,-0.8882234634938495,3
0.7434684616273669,93.61785484018037,-0.4395671860188579,0.9087572004417861,-0.5333954248834172,0
0.8468358280832688,83.22800471012378,-0.8937587516019978,-0.5780614205766013,0.266042439076037,0
0.9956951362331803,77.34788582370042,0.5911636730845657,0.007858015448488409,-0.4802407471003862,2
0.7726165814534501,51.06764237421352,-0.16588952753458885,0.36110969528896364,-0.6195202323824021,2
0.9016406642217636,42.88313404351494,-0.5417667721772019,-0.5050645409973251,-0.08239536928341584,2
0.9284858845986153,82.95157615922383,-0.5364194447668407,0.2009457265005481,0.22719613753882295,3
0.7712912631977199,63.191056211535575,0.8027998824584663,-0.48484243500400126,-0.5028845859665192,3
0.9184649045835579,45.805268650544036,0.6678332009220738,-0.33308595893670545,-0.39861762655251587,2
0.810334939815776,73.16353847156925,0.10706177071436662,-0.11696260697826988,0.22711860962302777,2
0.8896917491780738,32.823369649691635,0.23222160083144217,0.058380197493133945,0.8914768439789054,2
0.8900589132282684,52.83191778897775,-0.05134885889941798,-0.10126825674969875,0.3494834548761765,1
0.8607324052224276,62.79898962137943,-0.21666691424238227,-0.013608960424141614,0.5658082871691199,1
0.7270869310163225,40.357083387658406,0.830953762436663,-0.40282248742341475,-0.26637981048906245,2
0.9505907486767714,98.92581343135878,-0.7487745929593959,-0.6820698119547388,-0.45549128123106786,3
0.7962340194915207,44.636815521273,-0.1631064205675441,-0.9053000453463211,-0.09146451359475494,0
0.7559555531199562,39.12471910302859,-0.3108761840242493,-0.6080425550166646,0.6142656574233474,3
0.7122325424664291,44.247441172082745,-0.0036985594977032576,0.16388728301156608,-0.08740071641888836,0
0.8772678829564725,83.8342793211807,-0.08473625090964987,0.5722308956062647,0.693450817579722,2
0.9032693085526847,59.785396149029,0.03777906330216285,-0.661504805114211,0.9775439613902541,1
0.7049763486783568,69.57911578267766,-0.7201620455460118,-0.7828892844547031,-0.8559466685393273,1
0.8536279174897843,31.47064098904525,0.026283003026554175,0.4985807210985005,-0.9091796878325926,0
0.7679487325593813,32.410191600132016,-0.5151623722255783,-0.3896833389254206,-0.7008205941732764,2
0.8935518371228349,61.207788487891136,-0.6313373020236175,0.902998878454705,-0.23126064853130757,1
0.7523099287014974,87.16586702411365,-0.8703315624276176,0.4286359412207461,-0.7379155817091352,2
0.9072813214307398,91.96672150952956,0.5253051175122818,-0.34648790551393827,0.741328955237512,2
0.8160206038901612,36.06945973169481,-0.14511615828688007,-0.42091450441259015,-0.9537074979458724,0
0.9810189966210203,67.6854171470716,0.2532873666235167,0.04739677254261809,-0.368414567328355,2
0.7412562832437979,93.92607803954894,0.4551866866094867,-0.8417106634435811,-0.6306107410115893,2
0.8023199053150776,57.15809280785204,0.358633330627107,-0.764646974709402,0.8630786603150646,0
0.7340420563721767,88.0696081999858,-0.05899856182063545,-0.648284237367615,0.33896200978005586,1
0.9774080854835688,39.35869580796054,-0.22420294209654035,0.5494471866091204,0.824060512902749,3
0.9632018060142943,95.47761427674591,-0.24808018071867255,0.02771471853824492,0.9446574206207867,2
0.7773824883145466,82.5996322271912,0.2800975938601127,-0.9788657544511141,-0.005803512645261577,0
0.8979952138102537,95.89340749508311,-0.010411290116253191,0.347033054944218,-0.5313617839039475,1
0.9451666600603648,77.36320634867545,0.6982644959770212,-0.15261964267900585,-0.6125424276068214,2
0.8665602434798387,55.43827523995989,0.7494039686534242,0.021704729927595867,-0.554162276628319,3
0.8588951735068019,95.67268207673057,-0.6588792439869631,-0.5717675131741289,0.4171866152440058,1
0.7725556872701355,49.289674341642495,-0.7275326969085487,0.10356445678820725,-0.9191085437539985,0
0.7279308303417698,53.25207654432128,0.260801852071999,0.9583064795029772,-0.8972778539345703,2
0.969164727385998,79.05658926012183,-0.39754850387544116,-0.8531106179884771,0.21628588476630006,0
0.9701254171489991,83.57214096677704,-0.9628585624698023,-0.4321652006711387,0.2841142934748131,3
0.8899304371819804,95.05824386944077,0.7772853387259102,-0.5140048142783404,0.3305258486449201,3
0.8017089373146101,44.33616863393466,-0.5461984655123835,-0.5029013784976408,-0.25623899082281754,0
0.8047628723837983,85.85986246534569,0.8585613033716182,-0.2425872848692454,0.6118897774283063,2
0.9177867036610718,81.69822373778744,0.4348689017565073,0.636219569488335,0.06724917545323517,0
0.9691330779857732,34.46561893775185,0.5253069798229686,0.8257173799287747,-0.7890687399811611,1
0.9661259272795352,57.105619884714486,-0.5970770084136792,-0.5955698250820534,0.5941986141346904,0
0.9339626637572871,49.7935819942069,-0.5316111487663742,0.0858998758962255,0.9061355725409166,3
0.8926094938462863,51.314329704782125,0.04253550764813152,0.2737979443309606,-0.8799273739952826,2
0.7252419894985146,98.80628156882906,-0.6558002947002757,0.043654948727689824,-0.21729732259884016,2
0.7484886142283841,74.99441894359495,-0.38913661463393545,-0.13184721160616086,-0.024967910330504717,3
0.9695662565581238,80.23733104554498,-0.35707504410439106,-0.6160489882815243,-0.7070584798433661,3
0.881928717897877,98.36323461205065,-0.6807401334944718,-0.023561281601522932,0.7354178955657542,1
0.7027591154849888,56.404124772034706,-0.5896343332096785,-0.19757034457734224,-0.43170071021991197,3
0.7304414628598096,86.12881179169642,0.5771036840165131,0.5911267250045393,0.5660170798763202,3
0.8990505307324167,60.417167431314674,-0.6656082909054633,0.5272087183259904,0.34198896405663204,3
0.7015184751538656,90.86735702704858,-0.943085216312155,-0.7320026375886586,0.19609164493404685,2
0.7482424154252496,42.64602789179122,0.25870988525787686,-0.8229618948738648,-0.6157143026068912,3
0.8646201368099758,96.33803239449958,0.9519662387848999,0.816307886455006,-0.5585929588981886,0
0.907568559307808,45.314019588761575,-0.33757237075375723,0.07101677792899541,-0.9053031905068614,0
0.8955883778507802,52.83543548866521,-0.7626885936074954,0.7156018745651813,-0.5185751404354673,2
0.7672807928381679,82.93345638747464,0.14077465073506157,-0.8836977588671977,-0.3091127810789718,1
0.9136537664042608,57.562859909578464,0.8127084221912924,0.05303123304326052,0.6662906077248507,1
0.77117472624904,72.57479637365127,0.5681235596569576,0.07885302915247272,-0.2672146665703894,2
0.7976199094477803,61.12014507485999,0.245031736825432,0.7214040650842999,0.5092435655312129,0
0.9239474215354072,81.96589559628472,-0.36988700678480124,-0.804780003540585,-0.12111543740902486,2
0.8948898697141644,45.98318766580276,0.08376034655243991,-0.5191088726481814,0.5697366239877768,3
0.9547670231482533,34.09205910658139,-0.8175103173914893,-0.18692337222597377,0.9525432008740797,2
0.8972838676901029,50.995057823114635,0.3578908485613399,0.7316829508398843,-0.5203168838848398,1
0.8704925810006414,63.20160654079012,0.4501920377953017,0.877766630141134,0.7246832239277523,0
0.7281024303484277,41.7614036534875,0.9300632458198377,0.9854492391872558,0.24364817261154936,1
0.8103147409178301,54.83581027594721,-0.4792052825098567,0.9183869729170431,0.6345885231773096,1
0.7795607103045176,57.9988112805498,-0.9630871619139547,-0.9881164883112912,0.30317180453561043,0
0.7731968930137251,34.01742905817915,0.09121692885430122,-0.9045833170922559,-0.1521009854516997,3
0.9919031664257336,70.83150737289432,0.4135810087936289,-0.7047863616848227,-0.5438501211164193,0
0.817929317400028,91.90403995799014,0.580814951765976,-0.30227580645945373,-0.85992954933767,0
0.967613966553134,40.62200390671367,-0.6125221339503788,0.6598360619739174,0.07103672892143398,2
0.8893415877991788,71.84656093810598,-0.4764942619259527,0.7853123906709609,0.9806521890537312,0
0.9384433910624945,76.53174434375924,0.025181850534592654,-0.6263311874108339,0.4760836100284125,2
0.8507911279315576,59.35342762935018,-0.3387983800599963,0.23932830323941734,-0.34530891720196677,1
0.8730711653879077,79.07683111549889,0.7210229731748901,0.8347239701305531,0.6544096001734705,0
0.8477553081456591,58.75120804437084,-0.05247969252255946,-0.07253652813735845,0.5379680003528131,3
0.7585728963394133,65.32461015842044,0.5991572882040059,-0.7929128560944321,-0.4367284132930864,2
0.9167356345784516,30.514713118809887,0.1612395209647075,-0.08437269983075013,-0.9713850204115306,2
0.7842317087322567,78.42040798942821,0.546180283234224,-0.24841019542388554,-0.7636747229321008,3
0.7072947899294361,76.2939875261307,-0.3346540269393523,0.15531599213201397,0.7546123806241152,2
0.8936416887721503,32.68806141284412,0.6628332438606224,-0.1226826311857927,0.6731260706097435,2
0.7531332038221147,55.777507517659316,-0.45085536889795685,-0.9653081462925641,-0.4095819982432751,3
0.9821375753058743,98.53222885541672,0.0921976160065816,0.9879954668273423,-0.4296091474311592,1
0.9861785731007762,59.45155937980317,-0.5719857736522516,0.08708047546114184,0.5857299742049422,0
0.9744593170661345,65.13617835922892,-0.04894695674761329,-0.05273848903078093,0.8754749397908441,0
0.8110476100766333,93.69511107118029,-0.3636495809825937,0.909234743008108,0.5582745135951999,0
0.7046369849586602,80.20833131060294,-0.4665931387255715,-0.6882792648258458,0.21115735406152303,0
0.9784955687763176,70.74490917869565,0.933970036056075,-0.6215247949095035,-0.5146572993363909,0
0.8284552444951943,85.84632769387508,-0.6798517890265388,0.616029498125567,0.05149582819052134,0
0.9899964457131009,90.50563865191813,0.5746516749147905,-0.47833783994998247,-0.5329762828134708,2
0.9890859931267759,61.98216502160868,0.9683299189664298,0.5984542125830539,0.6160228401935472,0
0.955902836640208,63.25758554522848,-0.9601970325198443,-0.4569330341829949,-0.22607784096452543,2
0.7883346676208757,57.0235654956285,0.39805482808419,-0.933624739549997,0.6673944339880524,3
0.8155293185805775,97.66942980129224,-0.49417638888742577,0.034029447773431976,-0.23678156403454942,1
0.9553410014550571,78.80163780032453,-0.9190243513433911,-0.6066271317462772,0.6482988103997827,2
0.7950766015468833,35.82561463456506,-0.1942208420867384,0.5156925858649422,-0.3333643696695161,1
0.7508478240058277,90.40717363191129,0.87043562034175,0.28239926646429625,-0.11973459076466031,3
0.8670403787375051,63.63919585853876,-0.9764698112660046,0.8472053359558356,0.23097683868531504,0
0.9808464322482343,34.812773449574124,0.17577138385956337,0.5659767145314718,-0.8594247719401626,1
0.9088089390024918,68.48020786143178,0.0027929571906486483,-0.6384480903185463,0.8964141236309289,1
0.8710183510268095,59.201499528299145,0.746768328742095,0.6003164733295927,0.1472115722476064,3
0.7291529481312305,91.44245834038374,-0.8319965709587487,0.28347408962804654,0.01564002938160458,3
0.8845021680097509,44.27962225265712,0.3630520597733007,0.3379032835212499,0.6787879422398242,3
0.997016155031279,87.8525226644528,0.3602193968665546,0.6645257719402975,0.7315254597936551,2
0.7420252045709572,69.0382083829817,0.3381600337245665,0.1476481383778805,0.04452080905803202,2
0.855498895709121,33.82272122494283,0.8846689898700739,-0.06799297129397419,0.8545246515872746,1
0.9632119215783866,98.02917109278393,0.6461750580137609,0.2732820707174559,-0.8705244678470387,3
0.9222305853262613,65.88306708722399,-0.916054547512988,-0.40408514208328183,-0.7735484154975649,1
0.9091047222985804,50.36137979621077,-0.057834298590973665,-0.6348057378258014,0.1935764600288803,0
0.9107452251961328,62.858478939248066,-0.20409388759733305,0.2331756761424928,-0.29186827641283264,3
0.8078473453659265,90.05004484622424,-0.3797055578183959,-0.5323032618290446,-0.07154966762160231,2
0.788077553279348,51.343218706954445,-0.09732654969180543,-0.8401697813067865,-0.3438415642056669,3
0.9428083466435541,43.48734775406902,-0.2316116301480451,-0.9988916308294922,-0.19054937711012876,1
0.9430340184037542,39.034987285161705,-0.13533220024266934,0.21663880280013426,0.645292694292599,2
0.960121695574031,50.850157887314786,0.958523731217285,-0.27570243303952635,0.18695239970860933,0
0.9739721657669413,84.60336609280304,-0.8227340505008385,0.504621941346912,0.9946890985669965,0
0.8534027196582813,63.01384556366832,0.8444617396774596,-0.2496472033737951,0.5737583956419259,1
0.8504548884061598,45.923712258547795,-0.0395265730579466,-0.02799310352354656,-0.4526674917963467,3
0.9394885536900326,41.63294997268244,0.24748449099908232,-0.18583005436923017,-0.47130976454660756,0
0.8949891792333295,53.291063355726536,0.6603659332353877,0.30114958221869226,-0.32820345976598575,1
0.910590063177311,95.79470610199962,-0.2790739417014889,-0.2877216759700636,0.6865189612954854,2
0.9387378008308302,54.011869881301706,-0.13915618382406625,0.9275352998846178,-0.9454246986988688,2
0.9670016025452699,99.16868531682448,-0.18096303944257208,0.8722939731970603,-0.5396374422574846,1
0.8013985470554608,63.96613190357493,-0.2505379549284803,0.6960558053145627,0.8098368406885339,3
0.8126748857919832,42.54147428031056,0.8510586432937899,0.8406005411454962,0.27979287216650395,3
0.7281945819522606,92.37980642554567,0.6578597823860242,-0.10172062308121799,-0.5463058089978872,3
0.8734840422988521,62.22487611943788,-0.7820000202740478,0.07286079357898423,-0.5617100635348393,3
0.7107826821390226,79.67699404531672,-0.7837532950458079,0.4841851851164889,0.7252362035188611,1
0.8396794054397381,98.85981082464062,-0.14426097029401763,0.3922918498770822,0.787515016554093,1
0.862793390412273,33.51227452239818,-0.8026852465343819,0.7813571912109416,-0.48773781807576944,2
0.7859623756384853,36.7686191851297,0.23818619054223933,0.43266205451339057,-0.1589792838469355,2
0.8772499781707033,80.43197190239293,-0.7126167854765322,0.9957694164569211,0.6691914772566343,3
0.7091500749817148,49.72775023068304,0.04474652793360212,-0.30298840033681795,0.5420148772197708,0
0.7112044566247643,42.90109778650694,-0.9855601059925645,0.6659954844788358,0.627832213132169,0
0.9467801681978975,32.755331587381065,-0.36680730317470656,0.3952696456653284,0.036796381575937565,2
0.8080571924233788,31.529269839034125,0.35438144734531085,0.38277289043003715,0.8230980966103463,2
0.7381181537955654,84.21399221838536,-0.03192211954430313,-0.3483288103100022,-0.3480969120911295,1
0.8566729780164413,39.4103399158685,0.9565389719979762,0.571203584846045,-0.6866557313049639,2
0.9309980659295832,62.74044311798056,0.7482075921324216,0.8007520446951983,0.4174646651297296,2
0.7647463082490529,72.4127770625638,-0.2818584419136976,-0.5629030769588741,0.07870883201379275,3
0.8868671427457,59.98462603981923,-0.9090269170554508,0.25099367423340824,0.709171537618962,0
0.7256042394981304,31.897465663536316,0.6912526002300377,-0.2157303417944496,-0.8376815017505701,0
0.7155045163505823,84.84510518115363,0.8224686206293428,0.9790962385897541,0.6873848068761337,1
0.8594063894704443,30.735925717915745,0.6412547868380736,-0.04233436833663684,-0.4134106935823556,0
0.8621905364830319,83.33229260642388,-0.7441001181604703,-0.5433596524061146,0.309711334336366,3
0.8912289704494619,92.5313145651686,0.9958302688245755,-0.23628474955633494,-0.9197424218434884,3
0.9178274001167984,60.29879447400206,-0.48283155689445234,0.30767677963325246,0.2191625926072014,1
0.9927556238387604,67.48797311684588,0.44840982561674014,-0.8478212573008475,0.43454337837467194,2
0.8548901044903585,63.38883748323576,0.8160697526714431,0.2072038404424752,-0.2624995709887594,2
0.7968869418823737,57.244603303640716,-0.5286257713385811,0.862449518357796,-0.5691785894757195,3
0.9385558584306111,92.11971747592523,0.8165171093541321,0.7007255753157009,0.07526135320709004,1
0.7812496753786222,92.57534574689933,-0.3810368416102661,-0.8646529266840333,0.666381608871293,3
0.8316914262116908,53.507145524907415,0.9528264447681123,0.9867797574781363,-0.35290528340669836,0
0.7235369144026798,73.05488278102885,-0.4374799592390508,0.39745384740775824,-0.4950614049574409,0
0.7076052230246372,94.8835293502105,0.9068716495156703,-0.6754383513719526,-0.44212938272462465,3
0.9887945244033776,97.34409492589461,-0.8929106982146502,-0.975167821661153,0.8982643058333288,2
0.9507940361536618,65.62713282954333,0.41854402333962604,-0.6574347274156973,-0.28144616847088066,0
0.9087922618281093,61.69773636990287,0.0642222676740074,0.6763518413714771,-0.9927915202234256,1
0.8226858833242809,49.508602114996805,-0.044245845754538715,-0.9567213501096725,0.5633624159192394,2
0.7519882960212537,97.1210311233287,-0.55301137148832,-0.5337053927638269,0.39854959067078033,0
0.7469311128013257,39.99700131310071,0.4111915795529839,0.5146111906697508,-0.7428634707940622,3
0.7750728694493786,70.58807032334076,-0.6183810171073858,0.17222107179627022,0.969808498269825,2
0.8647679994118361,49.778518726304725,0.10568359196953647,0.5654714207203837,0.2161245706102224,2
0.9143787768100187,49.53058032434576,-0.4935092739194984,0.4923010076535759,0.0015589818812029588,0
0.8980592130153193,58.34780111633319,0.9112427595627122,-0.8987972257563905,-0.2355614647542179,1
0.7839801690837829,99.91550550709582,-0.9427376123286944,0.7850228381883031,0.7973455111272758,0
0.9864595841989583,33.847641478787544,-0.6005434397775269,-0.5459363314354626,-0.5120730371628734,0
0.9213690750087306,70.4979272742472,-0.5153787872251046,0.1067848804595275,-0.42846219956019627,0
0.8663062157534202,35.780051062469404,-0.17186434846436716,0.28857631305555764,-0.7551783866268662,0
0.8835162238703056,40.81645809933633,-0.5345395162598929,-0.6627435782298092,0.5182381911685201,0
0.8258800187283369,60.76940592410291,-0.01730181946242948,0.9524625134019489,0.19109856081170662,3
0.7743192968503472,65.73220919425088,0.744931046517078,-0.02368808782538201,0.2181323385089966,0
0.8067918035953785,48.11546858551668,0.42412684281834157,-0.8847146088052131,-0.5630591379610728,1
0.9273538331393107,52.15199916120913,0.1599239610702221,0.8745240895556807,0.3023367782541677,2
0.7043180465889267,36.087691417915316,-0.8219936440346407,0.17253568638653616,0.5309168944937279,3
0.7348217921520749,51.22538486909754,0.3879842167785512,0.3983863959627527,-0.28422293854862146,1
0.7138007926065257,97.65909075663808,-0.6671714313781203,0.05035157986844818,0.6026942879234245,0
0.712218640695691,96.12951671707371,0.572734771923396,0.6694759095539351,-0.3024188229359581,1
0.9566381752033022,53.441480309588954,-0.4998864829796936,-0.9337330756135782,0.5162769230185753,2
0.9110973578140071,69.95977553951332,-0.1659025433581982,-0.4632432694457045,-0.932539785084562,1
0.8422521487261976,93.6716773777661,-0.29905959536414417,-0.060703287194615596,0.1023292029473053,0
0.7293502481953004,30.432867584862766,0.7176278293497136,-0.8467927673725799,0.9390531212797733,2
0.8474847625350497,86.74784992363143,-0.7469110825731837,0.4118133386533165,0.9624892013647814,0
0.8420415312341697,96.38586869522433,0.1312897647695772,-0.21267317188871848,-0.4364948433165188,0
0.7519605609730046,36.392801403349,-0.7158767811138755,-0.45466401946371193,-0.11720181783928907,3
0.8301554947713918,41.30133802230447,0.4095916722643733,-0.9932423063831755,-0.8740441840267339,2
0.819551420319212,97.25224119399488,0.8101562555889623,0.4396606234999074,0.7466826152091994,2
0.884755029415665,67.62781005482424,-0.13078469226549316,0.6676186177457235,0.13714430628042829,0
0.8905280952602931,30.99376441302066,-0.02381547947004825,-0.20991892863700312,-0.22979864211896595,1
0.7135912029316133,48.03423991344704,0.8548456729655245,0.12843595406673103,-0.7744588830216939,2
0.8123837843879413,61.496057198820175,0.04198277729871425,-0.5446267481408031,0.8935345709937783,1
0.8877579747142709,78.50362377173374,-0.024803123900878132,0.24439529256026615,0.06043809564198743,1
0.8509408775740263,81.32122646957598,0.1566582054086083,-0.975725083369599,-0.43414414183419225,2
0.9569469523564966,99.67950590478193,0.37845947272590386,-0.02271220580248312,-0.299569739736981,1
0.8976080894856835,50.12578395686313,-0.7862332498259372,0.2884109636813845,-0.45860563815570465,2
0.7488803281244288,67.67540713079327,0.6422210554830321,0.836383546459468,0.2036196177139613,3
0.7211706242201289,67.33264835017235,-0.1289899450934815,-0.23732836575543148,0.8599271515610198,2
0.8927257834618947,58.39516816130663,-0.8553029802050289,0.5303804059620596,0.7133876066531288,2
0.7079533931624865,41.84133256896941,0.5723653383964262,0.19537405988700152,-0.079238249148045,2
0.875732674382039,98.42195942286898,-0.24610005662745582,0.8540242258501611,0.6529987246020157,3
0.9820690724274872,89.73220306666101,-0.7992650098098921,-0.20324464868113878,-0.1537890374473403,1
0.8726422533627637,64.8833119805966,0.2675580790865011,-0.361809320254024,-0.49538571848272395,3
0.8164509778619565,72.22717958788209,0.7602627068672834,0.7742839973882876,0.9668302305328558,1
0.892986465532706,45.90827374917636,0.7755070188279727,-0.9015111971834218,-0.3922248640583563,2
0.8374758671474549,68.06509492742228,0.9153269496179464,-0.7272292141326464,-0.3525515380261832,2
0.8636850367947805,78.64790931850331,0.735410919533376,-0.8351911308319111,0.9793857355730444,3
0.9824394426329576,66.06169198706121,-0.9957181613090496,0.6862199131528053,-0.7321450136686902,3
0.8158307913402323,99.31996194094589,-0.23951766717321954,-0.9787851532593612,0.5210679760193901,3
0.9883571691471742,72.79391593734084,0.6370851598110061,0.7233143109940963,0.871625516965453,3
0.9716051925868191,55.96815988145183,-0.2674939880030516,-0.09746440925746636,0.02358998855083727,2
0.7587373404367889,84.05064193310866,0.20309701275941228,-0.9919494422920585,-0.9949564765943599,2
0.7208083902625496,41.932375810714944,0.21263389474906402,-0.1967096455759163,-0.2498821117737875,0
0.7302334004132279,56.91610695943866,-0.2699493919223539,-0.6263983179099288,-0.7768620152303458,3
0.7054665476954649,54.28712652643101,0.8089478545625752,0.24880097494432607,-0.1676246781326085,3
0.7283328882267784,60.22649665754441,0.006456690772235207,0.3587175798432931,0.5800535232845694,1
0.904902032024907,84.72458781501084,-0.07043158812499839,-0.024944859190000335,-0.12257690223239903,1
0.7213565945380687,63.89211225143852,0.9950274913237918,-0.9189609491206601,-0.13614975730815493,2
0.7956926890881284,85.5810115186174,-0.01299927185476668,0.3122576087344038,0.11357895383769323,0
0.9534625932908364,70.35422321979061,-0.6432034961428379,0.6840775672110424,0.1633811694953604,3
0.7069815807207477,53.944860426028875,0.02613884572687608,0.44064855465280295,0.7125926175979427,0
0.9443405447766807,86.69851205784306,0.6280334710398601,0.6599158379106371,-0.38328912154209704,0
0.78455643243202,46.68027693871641,0.5537206537965629,-0.5989809528982251,0.6433425287360319,2
0.7354494482864968,45.706808585985684,0.577163530216942,0.7777758793129652,0.13186749738409453,0
0.9090211496092452,65.3152046838385,0.41604756799582354,-0.3556130987040744,-0.3989409005657061,3
0.8886828540339652,48.25944721734622,-0.49156434186662357,-0.973190371496018,-0.40974791198784577,2
0.9632416040581159,30.636092446585142,0.7241681716804629,0.6867832926581414,-0.277724965788551,0
0.9205213131411657,75.38082691091611,0.7868869307525301,0.8836425379294535,0.245386485239951,2
0.9410442791154545,65.77656750306787,-0.6116946067629019,0.31111639483469755,-0.5383765372801017,2
0.7846103717713919,61.186247014521285,-0.7390887268972122,-0.5371267390731507,0.8406671233445349,1
0.7532318631339168,97.68779602328208,0.9512099371782241,-0.4965110714349392,0.14982516835580073,2
0.9251844254922574,69.98394287740396,0.7366479273007358,-0.06681425312876099,0.8400315539920136,0
0.9420504217801792,90.44021044525692,0.7864722944198934,0.795662159202839,-0.9071912828416906,1
0.997151542600202,39.76151653436121,0.7727527692487903,-0.7008046877048832,-0.31477725907705323,3
0.8237853030734279,69.84445241905993,0.08337364806745673,0.6519473391669739,-0.9543846786247538,3
0.8116054257378349,90.75857387116321,0.2928034733315994,-0.4173943825896993,-0.4554963698040604,3
0.932923888222599,70.81740300959285,0.09072570426728332,0.6171723388581958,0.7240129445371764,3
0.8022410620759053,80.26099246889011,-0.8975873016193419,0.8405423952030773,-0.9267805683155983,3
0.9792271976810694,56.04304974685452,0.4910061707055453,-0.14501225601135959,-0.1277058001685103,0
0.9575238255529035,36.47146619259466,0.010664066671760564,-0.2698986917889383,-0.7648658590535444,2
0.8286982082125055,62.053020658895,0.29541814958045953,0.6044426379426036,-0.16631868147926454,1
0.9252613203374492,57.61355735872003,0.005279609951070574,0.05896576475878801,0.6777031685287547,2
0.9263628622254048,90.6942127665263,-0.016377355355088108,0.3688980969263942,0.24614206680503825,2
0.7309371606507797,47.07967116467306,-0.6564217810444664,0.24565847392235907,0.4735126906628464,0
0.97076587200387,97.67139592745757,-0.4425725697177021,-0.6942223087104074,-0.30179176910083805,0
0.8515757117343571,97.06966838631473,-0.6822946161120884,0.6895807205791233,0.888795390020283,0
0.9479372398323225,47.33421501500071,-0.6086674087493151,-0.6084497771737276,0.4185241875590002,1
0.7960148803091835,54.36363688341243,0.9459547608406098,0.8645642881415616,-0.15640236143093822,0
0.9686569685488602,92.68890186117196,-0.6937731084556031,-0.4988574171557043,-0.14707039954589018,2
0.8167605036202489,97.66355546272753,-0.4614591513895847,0.4677619465474838,0.8373683558865952,1
0.7032512954440895,61.04073719852308,0.18117931547716992,-0.43068921301281593,0.1528093868707836,0
0.9716145929257791,52.469793194862845,0.2203571524732837,-0.36442918282627224,0.4127584198060834,0
0.72738600303584,66.82658092760795,-0.6920517405123419,-0.3799962944353894,-0.16592955097365847,0
0.7957940912771244,78.14384444560145,0.5874348515704246,0.49578450805216656,-0.5526144704705718,2
0.9850185901152415,49.143216076248585,0.57040573582565,0.11363023593878618,0.4471185839888372,0
0.9851821440812668,81.5531222233351,-0.5253645915922178,0.7659049116949943,0.21564754428277566,2
0.8720313664369859,33.61601499802487,-0.4226673946490791,-0.3852545615919103,0.002685760849558738,1
0.8895511636509398,33.45061449350915,0.8759757309189939,0.38398504411348866,0.24804187998892768,0
0.8345336565934959,57.040139360188164,0.6513428919589561,0.5058971993262213,-0.5834288278715327,3
0.7879632315094194,54.74312344425044,0.39559406612504766,-0.6970357739400836,0.5878774130639126,3
0.7985993636109747,52.09432507570066,-0.8355335569787989,-0.1988212853603777,0.8963256100406116,2
0.9017555368231115,64.37138338682371,-0.16347183819484856,-0.034365011299177795,0.7822062883354055,0
0.925712358831304,52.45135076180999,0.11860374415365404,-0.28862522021125137,-0.35712850938596574,0
0.9374737131177545,43.458054292766434,-0.6251774240324461,-0.3557748080617238,-0.18798845343584825,3
0.9368854428383662,51.66286843620206,-0.10354683578355095,0.37283978799528383,0.6168045995951223,1
0.727361830914607,98.24329909671644,0.20205175497737993,-0.5682672046810229,0.19023426164920765,1
0.8483260914107744,58.7779391896394,-0.34524663976920156,0.41878149050225755,0.09582888735329842,2
0.7172676280049932,61.1298943800835,0.5618896379009743,0.8700883927814611,0.8532839350668904,3
0.8648586646971206,70.3581492965798,0.6808991632776109,0.13039504235550226,0.07204992195410154,2
0.8324591504120131,98.83385378899587,-0.3527810611318585,0.22286847347894811,0.029877359174619755,2
0.9663112548274899,46.91208935050341,0.6773143089849143,-0.8621345957518218,-0.9159628174672807,1
0.8052745037656236,77.68974773727037,-0.79284686779397,0.7289538072356565,-0.8611660828197247,3
0.7351201049282817,80.11892854792069,0.6754581972453126,-0.42910442560026896,-0.9851593842386996,2
0.7428975046158507,72.51270917551462,-0.6944991366647668,0.23010233105712974,0.8264884515672672,1
0.9284531895152417,36.200483774565086,-0.8341456949805479,0.9582243394896046,-0.18322667996459874,1
0.8854654189948783,77.38105930793034,0.28355080888202244,0.1910052011456156,-0.06287724773317493,0
0.730336802836837,34.48662977253228,-0.05612526848941135,0.44941897492875515,0.690773895184924,3
0.7252320418344992,71.72998546849279,0.8157812008256655,-0.10936076355249624,0.21849262075155584,3
0.910290739437736,81.770682405522,-0.2736216078183016,-0.8792683129698853,0.2190031927811622,0
0.721828901909258,44.767892343396525,-0.42569547312474265,0.595198698979577,-0.4069311412903751,2
0.9465580177871069,88.91354052799419,0.0014698122883967102,-0.9300023174720287,0.6678167478490384,1
0.9118726681469489,32.1247663873103,-0.08810762846267739,0.4013156577757082,-0.6683400479210124,1
0.7244046341925698,89.06690045608143,-0.3111439075656235,-0.9541568537007261,-0.8937008156541042,1
0.7254513142255575,62.223033544993555,0.38748259739665714,0.7246104731533412,-0.6167932849629354,0
0.9959918735503526,45.231155795215116,0.5191236678278166,-0.6847279283340388,-0.4645255624508706,1
0.8122812387268361,39.36447014957776,0.7059679380602732,0.02854299088510226,-0.4353778842915865,2
0.8111926441200672,96.73150173076608,0.9457132094206857,0.19430140896629466,0.34102719723753516,2
0.9438398701772508,35.08659113068097,-0.46668761573499107,-0.08490918525317581,-0.564350825342713,0
0.9841745732151577,43.9365393955148,0.43218696497992304,-0.31847302130222555,0.3533166089899691,2
0.9958003191468613,54.34756432031322,-0.21148352900850953,-0.0643714076380566,-0.8177356535324005,3
0.9260134555776824,73.41643942727843,0.35416394390221617,-0.37716849223768256,-0.705595077804182,3
0.8128778756592747,68.1360759693269,-0.048036619301559336,-0.12375530583827365,0.017642896981989953,1
0.7250502150096005,38.79504446886198,0.9875462055358633,-0.2821740180039387,0.8437916051532852,1
0.933144074778231,50.280958861675025,0.45780427158149983,0.1324096470142906,0.7191351776222279,3
0.8675212749207415,46.71262397602169,0.904982600868649,-0.524151675510033,0.9375068848856063,2
0.8272666027740929,44.94799981432389,0.6699390989623715,0.977313109828025,0.3009581305563418,0
0.9719063155284208,58.78010355359909,0.8058020223267421,0.0017399067643311117,0.351629732832184,1
0.7333592446918453,79.28220168141598,0.6288383944293499,-0.6116758451709807,0.2500459978629841,1
0.8477875312872577,45.221705255206516,-0.08168173924817723,-0.04586650086545507,0.24563784571639458,3
0.7034060934302256,55.667521579208696,-0.49642309330623124,0.7328302590496485,-0.7057593098648307,3
0.8405981925982379,57.36421987888136,-0.2593596490989556,-0.9563864137512088,0.08747791232785729,0
0.7168909827045512,98.35195706047871,-0.9595275347200991,0.3591082382145776,-0.22786413309654852,1
0.7356453748804216,96.82664498153483,0.04798633492933435,0.09593559358785608,-0.11492556844541313,2
0.7352578740331315,86.00963079264531,0.010115600540817393,-0.660884011259729,0.0472011461184747,2
0.8947630906348191,46.91612445734296,0.05050092966097641,0.6349528786098413,-0.7432076563954968,3
0.9238134637796269,34.76261198641688,0.9480624499441277,-0.2622307552519887,-0.2810245322957603,0
0.8750106295291479,52.18328964044373,0.8229080069096786,-0.41239594236898514,-0.8731008782467928,3
0.9886517645423626,48.675618460368156,-0.676574443339784,0.6562503837138021,0.9593362608447982,0
0.8124611738571113,65.41480601024757,-0.2622349568882216,0.2770500923833292,-0.7629439423597477,2
0.7857136258845582,84.44095370474551,-0.15208764107347617,0.7965181673496489,-0.482950522910091,0
0.9605797384568381,90.08260572152005,-0.2789341642967045,0.2597674073423988,0.7825858534067944,2
0.7670787515558357,89.1404859787356,0.5969919272078261,0.4816353158642306,-0.03457990752171636,0
0.9889667618321833,55.17728928561475,0.04807533973517386,0.6728917925192257,-0.7287255969587394,3
0.7036463424069449,78.1064040422478,0.14419963394325008,-0.8905207281801262,-0.23153892392130215,2
0.9909636480122916,51.898393826695404,0.706027117975851,0.5520979177387606,-0.7682640116172283,1
0.7129479735851728,34.26338802646279,0.6118563068307172,0.22741296369915354,-0.5995680058309965,1
0.9673429341094213,79.10956859220596,-0.7355769543594006,-0.8609844069696135,-0.89594030610031,2
0.85831033272589,30.68792867988515,0.42782916816726857,0.017155843737430176,-0.12354501090180015,1
0.9978894388357902,58.6427811220942,-0.12912774219592893,-0.8350838440320922,0.6132722434505196,2
0.7221389694206196,53.0565488511453,-0.41070219387499907,0.47189440344644473,0.17193835739979102,3
0.8661562853203962,78.53642769631966,-0.8999623581956273,0.09300342779576609,0.21269061096922348,3
0.9907907606857297,83.63718309322653,-0.025500879309098057,0.9071470748245947,-0.5988319398335193,0
0.8569293532510447,51.286624517989864,-0.28912663855093723,-0.6337292568564603,-0.312212313495267,1
0.8888195914405788,86.81389101113975,-0.49697392064719836,0.21206690504075687,0.690484207681664,1
0.9087246066953851,50.57417323534536,0.3893434591939151,-0.5768357308590173,-0.8242876313469709,1
0.836362319430332,61.24284519905929,0.538970774631174,0.2281299694547967,0.7158613073370674,2
0.8882674240252191,80.89129689098937,-0.5104209619411504,0.4452994047217129,-0.032619947470428734,3
0.8752942935769301,78.5044160457352,-0.9011051266413055,0.44460865865907717,0.6742948626502345,1
0.9703474031472967,99.115793061854,0.69750540113047,0.6301479813652198,-0.36398716121119934,0
0.7136339141024374,45.76127169511523,-0.9800805175913934,0.7071004559166334,-0.3223140968339584,1
0.7842889568776691,76.36225394777077,0.874224987842944,-0.8454565474656459,0.5032097366462855,0
0.9851234452229676,72.67773357930442,0.2552397479654118,-0.31346568585519186,0.5699923467844403,1
0.967079135167275,94.05689181430209,-0.35630672959735943,0.3742450407196114,-0.5407106440197065,1
0.8366970258357138,40.94534991514125,-0.5070441808465276,-0.0028274252175757297,0.945742649643811,3
0.886039779340461,82.62587145108532,-0.9819886714710495,-0.618648106490417,-0.8310197915103421,0
0.7832143548943398,69.77880313881379,-0.5290571659782457,0.10541914033339594,-0.8629940737957382,1
0.7564363479171283,49.22661088515338,-0.7245433969657178,-0.1851286944677124,0.1910084305722055,0
0.8391095214819946,63.21044399030219,0.22433244144629128,-0.2199234446913898,0.4454815355432429,0
0.8060056684078158,53.364361794885845,-0.6669088228123974,0.6195074348713276,0.9217722584499477,3
0.8750968335552616,70.55193819519226,0.05725967507323859,-0.1848033323356375,-0.19010843840227687,3
0.7233203910894954,92.23004275702661,0.18023284468894163,-0.9470909890391517,-0.9494171820207338,0
0.9923184422998499,69.85134890885413,-0.40391660330617096,-0.8838733222178174,0.20579267889281394,3
0.9958632233438809,74.22056928286088,-0.9298701019625626,0.7124880833832405,-0.42060795880245627,1
0.9094485142059235,66.31234929802966,-0.9254922387716078,0.9212016200250426,-0.13410575760919552,1
0.8608289099032361,33.581585451183315,-0.9473053356121648,0.37681867291141513,-0.0230610355001295,3
0.7928582848858983,46.3000989813266,0.47824933427309246,-0.2712634117998396,-0.8709747785239323,0
0.9441385059120846,64.44012106024579,-0.36398059037140373,0.8772006315894549,-0.028036430871794416,1
0.9054193517661637,51.71646986212933,0.5926003719353272,0.32560617275147163,-0.14736066639137047,2
0.7487850818034674,42.7234518432836,-0.13653435231430167,0.6886670983986753,0.4250885305731864,0
0.9732781553481528,65.28929893429068,-0.09400379834007233,0.5317046080740186,0.29133182242468925,0
0.9467611728769507,52.59668554134952,0.025765205019147475,-0.24172136845481518,-0.6295685636988779,2
0.9849399739875773,48.067535022139026,0.4260629127502078,-0.04259559829842896,-0.587722163579206,2
0.917715852516508,62.47897922082666,-0.45299426834058587,-0.627735691263801,-0.4979876424512535,0
0.8840245587807369,39.32989806575212,-0.7568253009329462,-0.4159717991185319,-0.6420991194056453,2
0.8254729108871857,94.94220131527851,0.112114670382923,0.5562513225730434,0.3144263993369343,3
0.979818545006204,90.73914685434673,-0.34604475351452146,0.7879567837662165,0.9888603584005411,3
0.9598191668501225,79.53344100183747,-0.1150173726639252,0.4489208465028236,0.30421668103187316,0
0.7135656010318567,37.434967931191935,0.2938934166746108,-0.06965260668672335,0.21336309238258244,3
0.7079100923491756,84.31140781287851,-0.011748517717458773,-0.8269814621205049,-0.18014413329785506,1
0.8129390100634148,86.55701296763132,0.24055763420168574,-0.8861041026031036,-0.3748394822804786,3
0.9431659992345498,83.74352324000364,0.08840000422725569,-0.25134887077429235,0.8221475138129584,3
0.9961828387944833,37.97761209834688,0.4795927438721983,-0.07235656246467381,0.938003748284306,2
0.7451250673310584,75.07355699474353,0.41187323542323995,0.21824124442659376,-0.006447648824544405,3
0.8782392146056406,88.4027357024579,0.0683797836172384,-0.9870209572260056,-0.41959900898688507,0
0.8142672569893065,70.41473808537674,0.35780604171941377,0.9794457809326127,0.5402444153395354,3
0.990974319344381,75.24851626596623,0.7471192045452255,-0.2721222331919142,-0.7350864182662431,3
0.9526356769407126,62.08544355984143,-0.13545742442366282,0.6961893276022428,0.5311764752873631,0
0.9514986114133414,67.00951239188367,-0.1744738545024127,0.06993341133080877,0.6378967486226774,0
0.840607947938491,32.406380084620764,0.5284912417047603,-0.739121090933307,-0.7501921107456653,2
0.8244458507012995,74.72741153812993,0.16510767408398808,0.5951311050690438,0.9537229375931275,1
0.7820221215792118,35.701304902381146,-0.8579864395548229,0.41965414983975213,0.9710245807769569,3
0.7169126489952781,60.45102160381563,0.7842240313821627,0.054872169858456,0.8734389586547024,1
0.959416712876516,50.48585683671855,-0.9384337955247197,0.029106182667560043,-0.007930381187471358,2
0.9438703027390233,68.1799565148199,0.4967927124194862,-0.8250407884981439,-0.5078517154463431,0
0.9999153019858391,39.339143486624494,0.5175882854086258,0.3116978971477482,0.1640185617638259,0
0.9989910511221716,78.41503813813227,0.9062221705638609,0.8224903115085995,-0.16013232305712854,0
0.8666295116807883,85.65080758499292,-0.8917311831953585,-0.8135101615572833,-0.5881027105656058,2
0.9306962245541531,41.434811482020955,0.19371372156898192,-0.4729770987021902,-0.15264718076430484,3
0.9834297189647284,37.30191611463175,-0.14431885874589412,0.8046159468841976,0.32777967135518105,2
0.9548942172032234,40.18608379511514,-0.33873409028091594,-0.4313121803604134,-0.8581733784280179,0
0.7742044305229593,91.39892933289512,-0.8193628794018539,0.30788734435985265,-0.33316399710796696,3
0.835163240593028,66.97324832294493,0.12530823934261837,0.06963632988628832,-0.9644102199743496,0
0.7387478245454484,62.70826972052518,-0.04191854865077271,0.19265521000772412,0.4989910109233513,0
0.9862153081776167,37.4698273371648,-0.7908910836979515,-0.16842219684549375,0.2813825352334016,2
0.881852390335264,75.46892047298732,0.22497901419416677,-0.40001705889257777,-0.8746557305960683,2
0.7685928416510388,90.7599714326563,0.47590624050587693,-0.9029330985406621,0.9294751192039357,1
0.901510205321757,87.9730108526417,0.5345566021072965,0.48856187858832834,-0.9547568857457986,0
0.8854384721373687,73.82382962865609,0.8107463765248548,0.4921869243884536,0.17992129295217718,3
0.8074488154098521,35.269510165617156,-0.18105851622244562,0.3414514801574464,0.5527349235981116,0
0.7340672776598887,37.86779190232091,0.9061455372442739,0.28726757623924115,0.5757926260894459,3
0.9014719586778399,33.45162909768773,0.7308588101653721,-0.5125657356649476,-0.9314297288135924,1
0.856092310271138,48.02354515447285,-0.4069968579521219,-0.9553101324674176,0.8128302652808785,0
0.9316955175206918,39.49630270122644,-0.681433925301083,0.6174307937708794,0.8369033438542444,3
0.856049050333598,48.20336281767037,-0.12922120774397317,-0.017722928608346233,0.12278074630874536,3
0.955654450095562,56.95406390032731,-0.1962025840880668,-0.3863237385947633,-0.03583360222570775,1
0.8655720516323456,96.0087948849795,0.1514386106624086,-0.7961361864388599,-0.9102650738748004,2
0.8682813914606159,72.72632418471844,0.166772464655496,-0.8745568181972232,0.12390828501973727,1
0.9629960807975035,88.44816499780737,0.4999739687599505,-0.3022665564096454,-0.1812418364595385,3
0.8210448598637191,79.72460504986326,0.019779896411220355,0.609474129533881,0.5456128148173123,1
0.7402045685351922,37.875219136864224,-0.7903547181184689,0.837447498667661,-0.19223286622782432,2
0.7086348028940016,81.51442844617642,0.7165826711062122,0.7935027292261294,0.3671616666494195,0
0.9265411767020857,49.25692170913871,-0.38047083362962586,0.8400016694993098,-0.7971837075249384,1
0.8860928654060394,74.73754928962944,0.9425949206131841,0.8154506862586854,-0.7340954584680661,1
0.9112239304297671,53.86733815500919,-0.7642797826404597,0.05444950320079167,-0.7205796187016833,0
0.7638892484526731,99.83705842852615,0.9165023444650064,-0.5611687228861924,-0.908949000400513,1
0.7409114426760309,48.448603564774444,-0.817976386234966,0.5960931656736408,0.08265771853960757,2
0.7043633997003645,49.53913295419888,-0.5379277241058811,-0.572574050294842,0.5879354520872719,3
0.805176267641979,95.14705788936789,-0.9068401158269168,-0.46558544648686184,0.22082240738733216,1
0.8769753060563898,31.725108324542585,0.4102262932779899,-0.5334913563549031,0.14990977110571246,0
0.8176732135299196,78.76822915112379,0.7005974731435836,0.02996480739161167,0.3612478568054729,0
0.8312424766071187,80.77284735151147,-0.13185783636803916,-0.3563449836618402,-0.32070935385597044,1
0.9712476083481245,88.54650041872796,0.8570441500848593,-0.6916879007493171,-0.2760918567035422,0
0.80447664010699,98.21075174469327,0.18059814351119918,-0.09365317621223523,-0.3714598035581549,3
0.8541968467479433,98.29213434096567,0.2600142708930464,0.7478144775703339,0.42421786570715114,3
0.935095903822343,34.569373029652475,0.6908384034015398,0.14110570989994442,-0.6767193286584514,0
0.818962834696381,87.52875259270317,-0.4063995898963222,0.7566712117751742,-0.9739494393741512,1
0.8866260100683621,75.24169535601669,-0.2914685573447484,-0.6082556298417252,0.19239289344498478,1
0.9587091126240235,75.3139494061164,0.8119038383892887,-0.666052252654892,0.8847627294684108,0
0.9848561870972926,38.98449486302864,0.8019269920775276,0.15115425139684047,0.2188158339926094,3
0.7441220442787113,75.51310165119574,0.9529655524017417,-0.07334219690745392,0.5658433058817902,3
0.9779762875484483,98.77378064208735,0.8036766328833422,0.32034528329391376,0.3455814189320603,1
0.8476348879238614,93.82729986776128,-0.7452559279332782,0.5892535820535632,-0.005126692953967504,3
0.7774733164896874,60.73914625633954,0.6474485722739747,0.5026145913043529,0.436784803567692,2
0.8377407268714784,32.796358130026604,-0.18032304378081188,0.8845223473171222,0.6482082477104436,3
0.9940097725856432,55.36054430001434,0.9816027118918758,-0.2034871816859769,-0.550536711656604,1
0.8477854281978608,87.84732181203887,-0.055438071342397865,-0.5872265155036385,-0.32773903903370893,3
0.7986254830862525,79.10493710256162,0.10767216500444121,0.1018252798957715,-0.5525485349934323,3
0.8900202562950177,62.154055891576945,0.05954983051359708,-0.7785137596176288,-0.09565408881911797,0
0.7720436856334579,33.857107461118176,-0.3565259402834444,-0.42229775333673714,0.7701291018333352,2
0.7227589984325992,59.882630947631185,-0.8499558222141637,-0.5842238894737111,-0.3095857983293353,0
0.7386639165731947,62.83174578025184,0.791302460803837,-0.20687256640583818,-0.25106622173889326,3
0.7384137516873317,94.99888730258952,0.6053516250525737,-0.7775668499955692,0.7207344693438635,3
0.7455708080536882,74.87602725075116,-0.7209464388806615,-0.9363165109038043,0.030748661489350404,0
0.741648151794823,51.81570416582542,0.5535365427001457,0.3135880092600636,0.07089799929486884,2
0.8922624234409644,66.7722785115505,0.25169333210122,0.2204979565796097,0.7216024066644258,1
0.7545640253197434,34.623871547551204,-0.18171242416475542,0.41671787207732236,-0.01894652594905355,0
0.8037001849971589,98.07977649548158,-0.49195770180887455,0.32077288054268793,0.36311506925879056,3
0.9690365229718035,55.20419313515082,0.719457567004465,-0.771410637715233,-0.8287106682518786,3
0.8421884920788617,63.450714843919506,0.4003765185881061,-0.4178422372487074,-0.6427365737462294,1
0.9002673215563082,54.86987819658458,0.09547981893827373,-0.7409467801992953,-0.19124759856750884,3
0.7516959613604889,77.77582110813401,0.2191370677969282,0.6859448040971263,-0.010321864360250288,3
0.7576867056426012,76.35625108307151,-0.817867635835638,0.49380731071104655,0.931467402472459,1
0.7122605848799436,80.07256173703949,-0.052160478177616154,-0.5969459941635151,0.94130326609558,3
0.7506805189216493,48.770026072834455,-0.612599414428596,-0.31738151902021317,0.7023941749575233,3
0.7835771017095876,52.09679368148462,-0.5832326419823493,0.9332299845284284,-0.36880232942885094,2
0.753103145283024,38.767586176734554,0.32260792457373344,0.18831871575930292,0.9280565816648794,0
0.7266107601271167,75.88569802922788,0.8225123036685762,0.6023111946023145,0.37868172935242517,2
0.7361907613301802,32.785798913495675,-0.1924867790433069,-0.4708179304625417,-0.2141197443651992,2
0.8382336304098177,71.83776348664213,-0.5845014539756193,-0.5798941596413896,0.4033498339695327,3
0.7619001155217378,90.87871193961436,0.29749387447330844,0.5678338576930968,-0.9669545404269468,0
0.8092809583144226,92.35825038027434,0.7423740927006355,0.3717449104628803,-0.7076906354515728,0
0.8510251812564571,61.43264322589732,0.49663760224498166,0.3619558584235274,0.6593714231127354,3
0.9071184485888095,62.151258174915164,0.7375144610731743,0.10526916365838779,0.2911472737463423,2
0.7117936419523296,35.38784281056122,0.07310934202159869,0.12715668555309767,-0.27161059741623195,2
0.9398231196727128,76.9535517810125,0.5037524887383817,0.47139501061250755,0.001333280445437568,2
0.8883701168472723,87.48815942609919,-0.7198708812821271,-0.4599950377576094,0.810284299291534,0
0.7245277095846615,47.125853822329915,-0.303450769273617,-0.2944630682860885,0.2631562189581731,3
0.9620735872320332,59.49106171433553,-0.22090167103695513,0.7432735410401101,-0.2037014321313395,0
0.9762617201595439,88.71875357356893,0.022591492492069154,-0.3822695979756845,-0.75934668520493,2
0.7183233879564591,91.39843273636016,0.8581527205136474,0.09261914275859806,-0.412506396748878,0
0.7830632944441611,47.02259861849582,0.7485931204443486,0.4052789280133682,0.9566804655931667,0
0.9418603839379184,68.5399444178955,-0.7309490154216309,0.999849653666353,-0.125273874296445,3
0.9244779071150975,43.4745205445079,-0.6544206962350736,-0.1294173370093361,-0.056321072310278275,3
0.7553563058069132,37.131513489768956,-0.2847189008221773,-0.14381424675011245,-0.0028039352059692213,0
0.762804797001013,93.77843509743703,-0.4185122682186522,0.685176758867335,0.7682080458964222,1
0.8111416308374145,87.43552529624765,0.22954190631252458,0.6110062225197266,0.20785656877061975,3
0.8453568955573063,83.20244312622216,0.8055520955290898,0.46215176346909703,0.38735407290384427,1
0.8854764314590888,33.41364231691983,0.9245830833451736,-0.07354072518194221,-0.22117291490179203,3
0.8106740918709316,89.06101548971802,0.307205905070453,-0.3521217596785684,-0.9418247628220513,2
0.8387604148399443,60.66308531337686,0.6763184028021734,0.21746096516969726,0.8619458284856887,1
0.924241281440127,53.967658630710176,0.05040440046159422,0.7524465862632819,0.8982553618328128,2
0.7110049608671793,68.25334527177635,-0.5833461062799206,0.7675549164171731,0.8983061066961022,2
0.7757310833032062,36.394726990648905,0.04937682418695477,-0.7830033098591231,0.887374173293433,0
0.9140048757653657,82.96525845466792,0.11016520287530218,-0.1432994323736987,0.6304838821391221,2
0.9685620513061598,70.77045538218071,0.48491512842711315,-0.0705560876025011,0.3691921002326537,2
0.8535032326346998,43.06130678112173,-0.5602340205853018,0.9552307350475064,0.6890198365345712,2
0.8596340455795947,43.17625398383319,-0.26337923582653655,0.35599603048516903,0.20109247800207242,2
0.7321516034019327,42.8974056100872,-0.2719450615708674,-0.18550716547585888,-0.7312607722159528,0
0.8342237100470364,33.99016712863538,0.9188791914823298,-0.947884228028814,-0.21756366991715792,0
0.8597851799365069,71.14589145601794,-0.11211007934656214,0.13077032019839185,0.942589823945875,2
0.7727411510904189,88.82437243119557,0.510187934596293,-0.8078480487232877,-0.29772437280868735,1
0.7807729692848142,31.224874979117203,0.5016227627488781,0.6688999146955261,0.7356558274627389,3
0.8131852489313868,33.43032514798915,-0.46891163039351724,0.5050373211407242,-0.8135770584502608,1
0.7060213593333179,70.0939193680862,0.1437393787434642,-0.07898168018364249,-0.3316323152490608,2
0.7966237496749534,87.36469797702367,0.7886057866372962,-0.14157844091660055,-0.2980933505452408,0
0.7634344020989634,52.87172233980435,-0.04960456108610112,0.7946779311375374,-0.8967949137820397,2
0.7982492056533743,54.47300791654055,0.8902350146850921,-0.4230832991637432,-0.7618113396264901,2
0.7359286395457754,71.74425482477432,-0.5710835413516768,-0.5019600757864584,-0.613669577756458,0
0.9671581842219685,49.19490223869029,-0.8516817884519385,0.8783948656515241,0.6756311816202258,1
0.8780777360662146,31.862585625437887,0.7829077462894987,0.6184916735069652,-0.8731960201203872,3
0.9037306957433469,81.46599626711173,0.6953623959244333,0.6412511861343893,-0.4025981973112256,2
0.9367513715822015,73.79549390590171,0.9851797518676895,-0.609612371448149,-0.979649994821465,0
0.8495326596787172,70.65291993389613,0.3587869762248521,-0.7134080171381312,0.3912554908060495,3
0.7260760864262271,81.91788902942761,0.873375853334299,-0.9479409003657302,0.2406061800867596,3
0.8611319625455643,77.26615862934263,0.6538980501682217,-0.5259169821626399,0.2899645241062836,3
0.8760523354062637,44.411739172482484,0.6888526662401737,0.5483809834286495,-0.25123443057076256,0
0.9236318422552989,54.67367328603458,0.13828314090853655,-0.5199231624717005,-0.5834643574648619,2
0.8294978638689038,38.82770991750375,-0.2352708041665783,0.4582065671897524,0.4406404265720667,0
0.7382740908386691,39.08999093925167,0.8691161450865637,-0.496183469265157,0.6222357454813903,2
0.7851327717396173,77.33370224495775,-0.13576564876821107,-0.20941500409865665,-0.7227970038035965,1
0.8089246889195905,90.10200748877487,0.07763873449933811,0.9663245798228168,-0.026341144125157312,3
0.8937751723994803,97.39128087027973,-0.10777138574962453,-0.5103765374317288,-0.502568636042275,2
0.8712334914006735,73.98429822846111,0.1296366279203942,-0.2472587454034647,-0.6637862775877326,1
0.8068290177693538,42.88709263526699,-0.05898984201534563,-0.3978256390695727,0.46865062698999815,0
0.9959545746378939,37.39552418142515,-0.9040648828410482,-0.7807500273399954,0.07619387094567398,3
0.8817324458070661,86.89956800757304,0.7640963720153973,-0.020211715738350122,-0.5676293352426645,2
0.7711680375207983,70.51295334519995,-0.11121236216846042,-0.24261867333399545,-0.37999997757690984,3
0.7305347417861211,73.27995147096038,0.1778872970146974,0.3897741716145602,0.9333073426554848,3
0.7458577417552996,84.70234621282964,-0.7216243944840259,0.6351890939030924,0.6973591294171133,3
0.7737873185153524,79.22940594127161,-0.9932243040347217,0.08849942899127705,0.7598934857462567,0
0.7482044119778667,88.41207769992677,-0.5094198127127141,-0.9356071558253263,-0.07997580583858399,3
0.7559701072153917,33.934973382191494,0.4091720642667005,0.23784471246944316,0.2476145278417501,2
0.7855285506081541,82.32644457225534,-0.8016109397742428,-0.8892185399581216,-0.24646451959117677,0
0.7520120785884264,89.55969301254669,0.8177748807729357,0.23271264719804985,-0.8445760486222189,1
0.9690296273879275,50.029452972082005,-0.5699548612876308,0.37005989853837695,-0.19786137868643494,2
0.7240701236984927,74.8313091795277,-0.5908127714164484,-0.6044647447649631,0.18796150641428944,0
0.8573534168710764,51.991344468588046,-0.636984076757009,0.6386922974435421,-0.42571145846373715,2
0.8231190480968984,97.05797465377178,-0.9720365740572705,0.8221702631480972,0.6959011494548315,2
0.9947135850725819,32.33965007048526,0.5436109369564692,0.6261739282276393,-0.6977996816508027,1
0.7336116706504157,70.58549906830686,0.7500690624905171,-0.3897816195758357,-0.2657418211261602,0
0.8193566797137225,41.65524829346606,0.22832540523239775,0.17328602489126887,-0.7501921893515942,3
0.9908411299826106,79.8554143624011,-0.6236000366402754,0.8296302983824555,-0.19033573202954934,2
0.9596521377681941,42.31231983930635,-0.4294440061182405,-0.35867054755430017,-0.9206773900514591,2
0.9451216212847839,46.476828332885034,-0.04814660527007342,0.6400556445308501,-0.4549012098767091,2
0.7773708481134819,64.60595677320308,0.9086919032466017,-0.981049737476607,-0.19852948977263263,2
0.7512662762170197,94.03844649978147,-0.5052972563645144,-0.9927065944306475,-0.04366927344661686,2
0.9005929659773293,44.82000605035796,0.4632918078397761,0.5194233206779348,0.08739271695028372,0
0.9788127967382758,40.096801478267245,-0.12110355341415935,0.5228951642542423,-0.4500177404201622,2
0.8670288679041789,83.12837822978214,-0.4043053032799564,0.5779543757045875,0.04608266922974469,2
0.8714838068409699,65.04336726337516,-0.0881681259557725,0.8600536757763246,0.018009243124119667,2
0.7839937280980852,93.82495786672399,-0.8575865649175349,-0.7641873763594316,-0.36764389824758315,3
0.930847879957581,40.26301900118896,0.5973747418607249,-0.5360300300326233,0.6604006613129565,3
0.756113124567257,75.21495251161275,-0.5133961440340657,0.8074498407476152,0.09128225318713024,0
0.797103770921273,46.301540230627054,0.4508242463859409,-0.6455276044552931,-0.33546056250691003,2
0.8276309315849251,40.97323000561475,-0.8633032571036106,0.36445853515316795,0.8946770241615529,2
0.8522831136053365,77.84005906100893,0.9101971123313721,0.06092600008163074,0.6902248261423221,1
0.772722919724524,71.55792339361133,-0.6139700291886028,-0.8336126462969855,0.9651756231036017,3
0.734451047421761,82.83792208536319,0.7654841524141609,-0.4294726761169343,0.3844677492908415,1
0.8831860127324898,51.66238035123277,0.6189464192308689,0.040744432881935744,-0.24355418898790626,2
0.7865891659720767,61.3580159467533,0.9357198481628319,0.7047002333676682,-0.43827866664197535,2
0.8743714664267837,58.383017343129296,-0.044218678108500775,0.4150769792293474,0.326635687348962,1
0.7463088145822606,98.88626247765599,0.45479458769190306,0.2437663229098661,0.9616331649906074,0
0.8443420305564452,50.45742697175715,-0.2585786859244319,-0.007934220117170376,0.2534301602076976,0
0.8597768297654758,50.63720668427368,-0.6312635239606124,-0.4026320323717314,0.7632298819796763,1
0.715547061046728,54.818374618002515,-0.11384813413310235,-0.7615101773614776,-0.34179313790446275,2
0.8009812834581761,69.5215856903225,-0.6685019692230902,-0.18184793086780893,-0.18609243505148876,1
0.7403244030816922,47.66259209846217,0.9640892455727679,-0.9429630121774148,0.8125504791787066,3
0.7190124911418303,94.07029582654917,-0.8075070177185673,-0.5778882214662988,0.5137334039156376,0
0.9969880697169835,48.597989540638444,0.1784234469052408,-0.13503324825468033,0.9628206407358115,1
0.7967061534924169,92.70710120921362,0.2529277105081118,-0.16278962865616986,0.5495284194644838,0
0.9429623337563904,37.243254455260924,0.07615908574810848,-0.9114091380060152,-0.1029685855635365,3
0.7763921964291292,75.95938916797566,0.32437177142366713,0.17812030705058257,0.06213603964472614,2
0.9044508166671787,93.48898629067706,-0.7676384499762181,0.09936851170647243,0.8010309849262733,2
0.928068357966906,41.81246068787607,0.11003704841058215,-0.8437913919581743,0.10329347219609586,2
0.8786916221823533,97.78288720694785,-0.4255748577452769,0.8863261049208786,-0.4892052516711096,0
0.8414728565650476,61.701835229085816,0.8803521266021133,-0.8012344420982798,-0.12876037446010113,3
0.8235522742441805,96.20005759087171,0.5241433068794514,0.7096683024746722,0.03263197769823578,1
0.8046604799628986,77.3774030541033,0.9450289643194854,-0.9993805361699881,-0.8065603328977409,2
0.9788587432743477,51.1110808911486,-0.9248878605196209,0.7645621900907662,0.48752534850578044,0
0.9491858223363188,43.18117674419745,-0.4297336496385826,-0.9605605355913749,-0.781292133290054,2
0.9895080731999537,51.26145323575696,-0.609154826723302,0.515624063784232,-0.19016457326238867,3
0.7372891670456634,36.51121864838725,-0.977690825376339,-0.27661837739949413,0.609244883080809,1
0.9192602425610933,40.07075764403308,-0.5153485395073572,0.4764336002726397,-0.0648592767734062,2
0.9815021370463113,37.32623082425368,0.3575519670408578,-0.19650958915004302,0.6840310394370159,3
0.754369919849698,59.60604806190904,-0.5378221557308629,-0.8581841553363165,-0.31623735588777,0
0.7199488802100332,85.69048633803105,0.018006890965236444,0.5350133907907282,0.9152725879968708,3
0.9223361947870177,39.89684879514381,0.7756362299299973,-0.85749462935727,-0.5810631363895289,0
0.8723419339539735,39.12243032206351,0.3875158406981505,0.8442408719224359,-0.9234717100213974,2
0.9525486330274816,75.04002646621316,-0.21074186018793606,-0.8980519284166772,0.7448530859808371,2
0.7419317129878868,43.802808737764636,-0.2550621221757834,-0.04134944445696909,0.5044054319008164,3
0.9385801935579671,36.83270266762941,-0.08852837198303054,0.4460688617015913,-0.5360323258652544,0
0.7604881960143233,41.679400474390434,-0.6459171178801872,-0.21350707041592454,0.9694832142733478,3
0.7490967828597113,94.66119771137433,0.2680015348319762,-0.5655330508151306,0.004560258537055661,3
0.7492797393792978,87.50298769433336,-0.271694361790789,0.5181819227920541,0.902130880288327,2
0.9443724160694147,54.784519364856585,0.7047306985240873,0.5685894095774529,0.010057542773998618,2
0.89955916620886,75.90745371291749,0.5131053201156326,0.8453899679087344,-0.05625082645741797,2
0.8569196274307358,67.60929715676266,0.2210263281843201,-0.2476697791378446,-0.10172292571106989,3
0.8076491452370507,77.39869844377947,-0.27159555470096786,0.01250346899465371,-0.3302494477340996,3
0.9631601622439325,77.78698067239316,-0.5801363366530312,-0.2737431143078559,0.06740299435310337,1
0.8177335322267906,74.0113810541995,0.5523037282112457,-0.4858363562972636,-0.09489067610286428,1
0.9449798318414732,48.6270957976116,-0.02718180201782694,0.5020659230752171,-0.9265062467528917,3
0.8317404725710655,32.73044945339727,-0.550499923645285,-0.3206963099660891,-0.479129533152995,1
0.8130833288274723,61.889674739307615,-0.6096507699199876,-0.1437011160152959,-0.5737543997888832,3
0.8388039357008819,92.36817192834927,-0.669198190997282,-0.1926526847519443,0.7348712046421331,2
0.7904133622492426,69.86480809630032,0.55432239241119,0.42532245129349167,0.19773995445368286,0
0.9242828140528754,88.26737291913355,-0.5420256293993766,0.8355912522213595,0.5273662008994549,2
0.8508161170277437,99.41370400728597,0.05328452705039499,0.3335121226147546,0.9136520754985611,3
0.7696638085440451,41.45313428967934,-0.0969072780538871,-0.056834807811534827,0.28807854505282005,2
0.9698723719823705,78.42443473993876,0.1592217984565678,0.5584102294777669,0.9652199828094887,3
0.8151673664119634,77.20055015900172,0.7543098007423885,0.28194264824427506,-0.37647189669574077,3
0.8630658583341966,98.59688131507949,0.7354947801634613,-0.878779285764373,-0.6274656353742123,1
0.971941633289364,98.99205137669603,-0.0978478563502807,-0.8086728271623167,-0.1933802240141771,3
0.8872713987741976,78.06750282068907,-0.9692674985305534,-0.9241661118527333,-0.05840117012838397,0
0.7350694122125092,47.0530354387536,-0.14711238857139364,-0.08636734758736031,0.7907230857051701,1
0.9819496370840426,85.89890866914193,0.2123870748482808,0.6517068686779297,0.11988087807335268,0
0.8883124159214253,37.49203939477267,0.11552951819612356,-0.3738336612972959,-0.415638001163966,3
0.8004716843971258,84.648951292014,0.302672211600411,-0.23167963381503665,0.48526856573504173,2
0.7417816217990162,93.71372869012875,-0.691848535053833,0.8189542167357813,0.011663874278141861,3
0.9382075567810888,56.79833763379047,0.29307019756146513,0.6738068906333097,-0.6757361094496597,3
0.886021826778554,74.14447064881563,-0.6346967625124555,0.33009622476512,0.15363957518250437,2
0.8600383275928964,60.10999124677784,0.5010479613934979,-0.4663924358154974,0.8227890736145678,2
0.9681677749152873,60.643553849168995,-0.32182477347464,-0.765917034623113,0.6852452349516402,0
0.9365791633673592,51.7259622375684,0.4197908667629071,-0.9678823546397726,0.17361994527066216,1
0.7455024639198253,83.34907343152273,-0.9042688021877858,-0.7859786547911582,-0.24583365223002374,1
0.7935166203386644,95.53235949165537,-0.18427994881817322,-0.41480711275211446,-0.8260424978715777,1
0.7745467419443397,95.85256014641227,0.4100690445266655,0.10358012715899134,-0.06070215333675244,0
0.923183887771803,42.234689941245364,-0.5462589673370117,-0.8719998344952262,0.5041588750591584,0
0.7100597304207338,91.23205547595961,0.5905740895944451,-0.727544443363102,-0.2794525605339788,2
0.8709669054613949,81.62020089989855,0.2615594662098639,-0.6378385953841179,-0.5291063488966712,1
0.9287376057222072,47.69861804832025,0.17512354429959665,0.2639641859666124,0.8627594385419068,3
0.9630296910285248,34.709922904506016,-0.29290229159132575,0.23157959796024885,0.6431114009159848,0
0.8026245246147722,48.759808681906456,-0.03509705923776485,0.10153145274430586,0.2765512388402893,3
0.9463771914016038,93.8545765747068,0.1946986019557062,-0.4989971506081208,-0.7264333121589612,1
0.7331895210865621,74.32250724270406,-0.055075772170219084,-0.257760617562536,-0.710182319187654,1
0.9539356875203555,80.47382626285102,0.39662664788112023,-0.8066205673245139,-0.7935608170884421,0
0.7382465986995946,48.00066457763671,-0.13260613378608088,-0.5470787924838902,0.2325933337854864,0
0.8191861871681101,80.35717089023743,-0.5954536365159393,0.7954104529451609,-0.768874407053328,2
0.9391886097338661,31.968505439454663,-0.5721324343979055,0.9593834928716569,0.6852543977252661,3
0.7449752282046321,56.27249420411097,-0.9883924623141178,0.2953191712805894,0.9859300036386442,2
0.7687754185697924,73.87273439796319,-0.3980845688826551,0.8336465840468403,-0.2673036305826695,2
0.9166757705179198,40.22675958789242,0.4978352809570392,0.2854838008028502,-0.09266030606580511,3
0.9160109609638223,87.61025021128543,0.5883254176752191,-0.9336070277890602,0.42333435397135744,1
0.8923442898655891,46.452190916834304,-0.5950649158085,0.993525169972818,0.8743060126515316,3
0.9081845333401299,75.65967789729123,0.9180879937428155,-0.8020953966269302,0.7881875471127702,1
0.8628173330042788,58.36379998027308,0.004805586960253461,0.3652836028901214,-0.8848163425003028,2
0.7755397176720857,71.7230516834353,0.8339574980370053,-0.4943275938504199,-0.66185639488647,1
0.8037087980511758,37.52153868402357,0.41353056372326225,-0.21603777418607972,0.5091943971155846,1
0.7544793150404276,31.18389599451251,0.4448668460448262,0.29186836960187645,0.3777862160648946,1
0.9725351684000885,93.66950991662108,-0.8299127573878577,-0.1270253013845859,-0.7335628119197535,3
0.8750175384298361,48.874100613702794,-0.5600177462061386,-0.4989078821377435,0.004129164003135344,1
0.8202554250290919,87.37739019463214,-0.9823703334110547,-0.33110762624335055,0.5616292621705912,3
0.8386017410932398,99.95452103305401,0.432255280953475,-0.31690376615364735,-0.5624386354746127,0
0.9841850018835445,44.800188059923784,-0.31112342314298,0.9186478090164274,0.7425752714693326,0
0.746005420934824,48.56195188283489,0.5733050321526936,0.597226031846902,-0.8940564503592641,2
0.8758689496050391,76.40018513442661,-0.32212756012594745,-0.0829024570411998,0.5643901701361478,2
0.8517666036653397,97.58140442204349,0.6386675045977221,-0.6003581593172718,0.2316377995797405,3
0.8834362706303943,94.10700437335207,-0.738603492503374,0.6220322205253119,-0.36960130669130176,1
0.7054330551462521,65.20128640459095,-0.6532536864849836,-0.685635056783253,0.4418650966838227,1
0.9616371726832454,85.65771977687072,-0.318246920832127,-0.5790755657159932,0.5647315903023193,0
0.9796354847450837,39.50220971699307,-0.18302522223545337,-0.2679732163196977,0.8677979426079385,3
0.8695399550767626,98.42067289428086,-0.30259437831404323,0.7606963917039802,-0.26445065569147275,1
0.9089952471630677,97.50472638251905,0.5272940650464397,-0.7364266627317795,0.3720334719599099,1
0.9767498143531888,41.46102705154197,-0.8060972147465706,-0.7555316142909478,0.20523255386938177,3
0.9121715902940195,50.959618736217465,-0.2975659607230239,-0.012050023389468034,0.05041213891417695,2
0.7457617128742784,37.010849825473684,0.6744799990309187,-0.4471789178126506,0.7808329483100758,3
0.872886508050044,49.02023192287258,-0.866405845475656,0.13745588329631975,-0.9936653717231994,3
0.8820145139148567,87.11690525906447,0.8846870153427149,-0.09672663063355302,-0.4357767877928047,1
0.8272392013907157,56.48209250156816,0.9726336845440258,-0.13008178729756636,0.07655447908966018,0
0.9209332706874168,36.187787700273084,-0.8228636523498398,-0.7760540590260134,-0.6434134767268953,1
0.9803101044307044,53.955786734523315,-0.41745495548852607,-0.7179006195003197,0.8157330674655165,1
0.9776705538720329,98.6968333968896,-0.2551986679292877,0.6421571548937002,0.2951902352260307,1
0.8352518114212396,74.0778516681442,0.5527827373054521,0.7717654751434888,-0.04423401073602018,3
0.7339714137522265,59.13126624843105,0.19185362423346763,-0.5306329342294995,0.6294035181333091,3
0.9954523596887004,41.6576959448089,0.2887314009851347,-0.7730789969504619,-0.09822761706979244,1
0.9516694259337802,99.03237580985864,0.515019645637012,-0.8931666561309788,0.11730602386001898,1
0.73739880436098,87.45943064841902,-0.7640420011259486,0.21659522748379367,-0.994498008892158,0
0.9762525647852117,49.703411171564355,0.6664189138205248,0.4307064250004111,-0.2685989396098529,2
0.9609689086186385,34.90480870048326,0.41123960836028806,-0.25438002159358897,-0.7224190552980605,1
0.8556514171378216,33.96378901642906,0.15468345039274056,0.35935173498127915,0.3793773613245821,3
0.8773826307234788,38.42647046538737,0.7794706695661133,0.42591763111905223,-0.04194608204853245,2
0.8197008111610391,70.65380085300951,0.40061270776761426,0.8706845627938107,-0.3964848854995384,2
0.7164284916466094,95.01343948438446,-0.5966000747379492,-0.8702527243297855,-0.0643353212565152,0
0.8005591724937703,64.77203996041891,-0.14050923784866653,-0.6154165535378404,-0.5807402240973076,2
0.9408560345794035,89.00618377193379,-0.011914266128533413,-0.8629480248060237,0.8501732649722811,1
0.7013896069013809,61.21206339018654,-0.8895647464991887,0.735987866672221,-0.892054734898174,1
0.8000497515073433,79.60084820374777,0.9092750267201115,0.5851743200671371,0.7308340705922407,3
0.819450608077283,81.23109161005506,-0.742845478406243,0.14928414124367806,0.022717577466701888,1
0.8612186808813769,42.177459413233706,0.3949225344534537,-0.8326731798976337,0.2378929922776345,1
0.9759566849238281,55.28512412830682,0.01246207218176032,-0.4533752826925608,-0.3947887581825924,0
0.8039037983097883,74.61115095766166,-0.9487355002311548,-0.40456030388296615,0.9333952335886426,2
0.8040859605688683,34.948762572905636,0.8494949517287234,0.12148639203083422,-0.43629808296102035,0
0.9212503744329246,55.30781314340696,0.7036736176378664,-0.4839122119265691,0.17775599428060862,2
0.8356653822669421,67.43596263968348,0.04851585580767104,-0.8540802721740903,0.9868334102142577,0
0.7673814468819946,99.7357145131247,-0.5421153277211095,0.46152460370659876,0.7621887927668916,3
0.835731854839808,63.21734938357085,-0.7567542186398115,-0.40183957668917736,0.07265965057221213,0
0.7422571061139399,87.12397299800264,-0.2732150411357468,-0.09525164595339874,0.9807490459344241,0
0.7529160959518669,60.24470995466324,-0.489143437907819,-0.7446667300353893,0.40273972346522924,3
0.8495103318218439,85.74735058337961,0.013382402012597439,0.6050966067891592,-0.5825991677163813,1
0.8256776348513644,71.67903611340759,0.9328185922468579,0.1310637538481152,-0.1888075791283872,1
0.97445377032043,92.06168090516789,0.1499069864592828,0.8031712524197256,-0.331013331976898,3
0.8087181697349899,58.76597866450769,0.7798621117801958,-0.009056873869333293,-0.3119725834576217,3
0.874176505083413,72.30130938750352,0.3017576749915545,0.8828513436357595,0.5209128787197326,0
0.8896792863758591,74.10130764331791,-0.049506946825599085,0.7837364087626519,0.16852585454558722,3
0.7039283369765,59.21680592603313,0.7092151254667425,0.15291971291846784,-0.9238145768209429,3
0.8990612116050132,40.101843058123706,-0.057263779654004976,0.8677868762997267,0.7548969673019521,2
0.7534107900609254,36.549158483863486,0.737256341020722,-0.35382250541089544,-0.4064077190396709,2
0.9883210952408366,31.16700854197432,-0.41684646084846944,-0.2687156745915773,0.9941497538262873,1
0.7445988183259339,91.14739849716503,-0.7423738524740238,-0.9090440973879261,0.9083814606695715,3
0.8243872371181071,46.55324385670862,0.7106289287258767,0.17840181352770612,0.8810614333639304,0
0.7256049004235932,44.805472449723766,0.17483032758533357,0.44384793985786675,0.6222552081279473,1
0.9990622755537841,81.52247802982458,0.7781847964979203,0.5470383804842063,-0.5587733366329148,1
0.8506585030993727,52.401127916117424,0.8756544139847664,-0.7003674279077934,0.06526548805756405,1
0.8786155051960132,65.42312846882857,-0.8927432192571017,-0.11168185537499942,-0.5513947463500508,3
0.7201229432165283,41.37577457082194,0.0019386037177366866,-0.6462735758121687,-0.48064908882210156,3
0.9249881411197534,97.18220050233785,-0.2500709018509415,0.3242546977084977,0.22190353887255476,0
0.7629716779286757,89.61069800120661,0.2517167941402343,-0.6841072551564638,-0.9183329092938732,0
0.9694162868322141,90.46527360755023,0.587182394404647,0.8083273679121499,0.9389171336414153,1
0.7615418921446021,58.47416240004036,-0.4388195680512621,-0.5387307086771733,0.8373463451559289,3
0.7572063161991,83.3652849595021,0.11359676874634328,-0.4171954674235103,-0.23846485568456033,0
0.7109649003544284,40.07133087728461,0.41745715980979914,0.7018126443019994,0.030844896013826117,2
0.8416200835329998,30.60333018142462,-0.731137834328532,-0.08306477970855242,-0.06776116146448197,2
0.8694523399787849,31.39810528046197,0.6281338119025337,-0.952008108399854,0.7643995572349396,1
0.7197125918285057,71.06212161831922,0.21221919970594616,-0.010827497594708468,0.37720375263222206,2
0.9326582850085032,61.87764336735586,0.8990748742273036,-0.8309133292397539,-0.4437775051512871,1
0.8359866504244082,66.26107442359638,-0.32094216173861345,0.9706894373746213,-0.10631749106940624,3
0.857317080798274,30.522419829205358,-0.7837081153256027,0.17622314091120472,-0.1420680486264725,1
0.8322288240814684,59.588063376019804,0.013002402073850616,-0.4869347647780431,0.9186703365678373,1
0.8202289182625978,80.26477128406026,-0.8283784565811223,0.1274353590952355,-0.6493781789707207,3
0.8678920993924654,60.988559137720515,0.9390530466480136,-0.8462657932364903,-0.8208473254111419,0
0.7465720737792138,81.25534444185556,-0.9226300834856169,0.5997826085376341,0.7612376643233805,0
0.7545784391485812,46.31132750777844,0.507007802214616,0.8506561077283274,0.7933719790117417,0
0.9585356863040552,86.91994031372079,0.05020479628448804,0.7488887764123191,0.7434781758243294,0
0.9838346386400898,71.19018683174167,-0.26275869500342264,-0.31648479540287444,0.02195383125111272,1
0.8119927948839258,44.75341696009343,-0.8683156709826907,-0.348463760713263,0.3194888565389209,0
0.781223401943066,46.570433309768305,0.2443338483472155,-0.9298247775674,0.12672609512196775,2
0.8931998629717047,73.9621325198676,0.1704406587819105,0.30280071740183345,-0.8611043478911982,2
0.822620251329429,88.09577152487103,-0.4382334538648005,0.06980956837958985,0.1916697938014449,0
0.7076159066981034,59.09394474204086,0.8204434028206242,-0.0813072573453173,-0.9727717054877982,2
0.7468457792098571,48.08103003893146,-0.39177998531432623,0.815261906669414,-0.3500251808858277,2
0.9147916686542192,90.69081248374204,-0.10054917881578773,-0.6642421978343074,0.8645851517463341,3
0.8976771825730454,76.84878042255843,0.08752491183731137,-0.9806674666196353,-0.39190946072838484,3
0.708128797751045,61.36598410981536,-0.7995362436474278,-0.8533670957584691,0.8796532852884957,0
0.7665916485798848,64.15301366955113,0.8643234384272647,-0.5532571243452622,-0.4997320857015115,1
0.7693224389764214,44.29795275554775,-0.2509276950979178,-0.9334289014730861,-0.37087551907693506,1
0.9015678230796185,73.87618410453908,-0.8384415722513128,0.005687421286270977,0.2568149928771071,3
0.7059131613263092,55.1119757380022,-0.2254176526493401,-0.3718190895328439,0.5232539455785896,3
0.7312325745953722,99.69516236720445,0.2004050941851614,-0.6390339838637347,0.002775536009768098,1
0.9399748256119568,63.612846068332146,0.02730534364265913,0.5001681498973243,0.7642313743883109,0
0.7535633986163001,64.01199243327292,0.38908394807454805,-0.5910973475349399,-0.9195191567787615,1
0.8958238323555624,69.60962511874703,-0.8890321158641787,0.3752102019875865,0.8443896772687411,1
0.771454834314018,94.17292021831227,-0.43091877945588775,-0.30147018830472216,-0.6073844002091839,2
0.7298324178278035,86.05726699018251,0.6384611536802045,0.023655521325109063,0.7684774901693119,1
0.7729516572998362,61.5791048858489,-0.8402126244172783,0.8677340797026396,-0.198273641027239,3
0.9166800795566977,80.30894861809571,0.7109719093919151,-0.9252967303683743,0.6655141117420753,0
0.9567089404318857,71.03648491465331,-0.8162078158457875,0.0005290149549237455,0.34333109960739017,1
0.9490659593700974,64.46569340908742,0.6689084297833925,0.7088459206552364,-0.6481167350434758,2
0.8191550588855364,43.46210409490453,-0.27842319784254665,0.175948496740697,0.8360951397628968,3
0.9004255409711939,62.47553844184237,0.2244181265144316,-0.44625896606968674,-0.5089652190230807,3
0.7614952886247462,47.20730109158022,-0.6942257687040037,-0.20463772970993133,-0.5117197626100018,2
0.787944319078304,94.03895048961583,-0.8676625565496383,0.3605312574571491,0.628357793274761,3
0.9689007455563359,53.47847694474429,-0.5681235919597298,0.7816237886276061,-0.7882534888549579,2
0.7039005770532207,96.65848101733606,-0.7442923641826089,-0.9178672525067768,-0.5559281872590793,3
0.7256525592563404,67.31387030662978,-0.37518820464073643,-0.8569223562192472,0.007355146842124682,3
0.7623658765438082,74.20810650733122,0.028766493022040374,-0.3498969527808249,0.6609540573732486,3
0.7079596611621459,68.00583111425294,0.17751892713001904,-0.534440631125042,-0.705032050525465,3
0.7544306305269391,39.05664318766906,0.5797362147594858,-0.47013822755518797,0.09533646902469273,2
0.8749124682909076,56.30748533055586,0.31247978649671726,-0.5574600027482381,0.42248118360587905,1
0.8264273651777494,36.940227859433676,0.21751665025910594,-0.6083499022896846,0.7211904494319026,3
0.9678015133230924,73.60678309283672,-0.17643594502845072,-0.7387520662614164,0.8711311204044392,2
0.9452330685215322,61.281193664030724,-0.05238313007972262,0.867908263590476,0.5692798289378649,2
0.8025452055093627,84.45894800996558,-0.17095834121963782,-0.7116210721876939,0.3056567964440038,2
0.7778270300293877,45.43293366995589,0.6843320601227663,-0.5911924504689277,-0.13275982937446829,1
0.8139077224501801,41.51962409005344,-0.5399990949032003,-0.5074685520384286,-0.7757796916231607,0
0.8770884827544423,58.443256167463744,-0.9885581369160708,0.8660297462608411,0.4194743850510425,2
0.7804190922468628,94.86097682528668,0.30263979445247857,0.5114282672021695,0.9854746089509738,2
0.8872446723547402,79.72952705086882,-0.5950756327223372,0.5793988606310294,0.47352118946419974,2
0.8228234956573721,59.324653735504306,0.7802302726196186,-0.7904834809230039,-0.9665778125245474,1
0.8656141542555941,66.20905188280173,0.7180926594133121,0.6726197500313433,-0.00748004391632251,3
0.830837958740595,35.894910782396884,-0.8465452561435882,-0.18361383636516404,0.2292932649658077,1
0.7883397278625752,98.92031274632792,-0.7872231891718453,-0.47435394757522253,0.3793484022056861,2
0.984535992088647,76.64851132864433,-0.009656815506667416,0.15150016704062108,0.43945167120141715,0
0.9290817382479282,49.978284792439574,0.21844532553870932,0.6443658116334678,0.11621688243304806,2
0.7420339527299358,71.0065875950671,-0.4501833250355185,0.5573043021498187,-0.5532793345315195,3
0.9605403927693739,37.66376562482958,0.4335954333987413,0.7799949651622642,0.8844013229530934,0
0.846229359474854,97.60856681653085,0.18983204183774305,0.8562643720308878,0.39333293532732383,0
0.9683656680682274,42.234949151835615,-0.3503517805028906,-0.5237558571445009,-0.5263199262611811,1
0.9399565767841945,75.36212226386499,-0.9492570239153688,-0.15228421166145667,-0.3553563354594542,1
0.82756405134077,47.18181237772513,0.5003005625970354,-0.97074292158986,0.8438553412607395,3
0.7067407924960352,80.22929678539751,-0.5704926683498346,0.75864331853012,0.7749703734146716,1
0.7806032078154838,84.37749570681967,0.6689474869252567,-0.6908556970504649,-0.18970712328382078,3
0.86249026439826,77.13938102380028,-0.15941947989148963,0.7229496246853886,-0.923385556017098,0
0.8900434659478442,73.01496221786348,0.15415488526353083,-0.34122535602680726,-0.9030052622121236,0
0.7773663056299607,92.47283657664082,0.7458974608180038,-0.2637328200377236,-0.4321634181632219,0
0.7418068222218472,35.503869769283064,0.7272460018399067,-0.9217354910322813,0.25824443867799896,3
0.9504790710397897,53.164033604613664,-0.2569608495128535,-0.3462424204693608,0.16838927066912368,1
0.9953206542110656,47.380123574159214,-0.5822222145703138,0.7767273656025282,0.2676555738878854,1
0.8577070546908057,99.1609773445795,0.5502921554571893,-0.9489051977567917,0.4345659438642133,1
0.7515037857544911,57.257284576681144,-0.13383959279573765,-0.18734505390654932,-0.9619354928145232,2
0.7816921979558107,81.28288894682791,-0.6159160128819918,-0.9372007403745177,-0.7898288096551143,0
0.70551720296424,77.93076147167032,0.8088506846343004,-0.2581531497818701,-0.2810330963455747,0
0.9742896419681497,44.84568662341644,-0.6037916115178252,-0.6547187184394176,-0.6902800049568365,2
0.7353253248670423,46.72983761480859,-0.9483856636175378,-0.49556321346325594,-0.8493599149108917,0
0.8729549426542761,49.68991944871239,-0.9594400524651601,0.755196746322838,0.2819287919946638,0
0.7822165662061618,58.77890947815655,0.24463071290852856,-0.127901558756218,0.6306729549821981,2
0.866253400754738,46.40275459553688,0.3233501214350607,-0.4524040171961756,0.505253314868565,0
0.8954261165055593,31.375603792279346,-0.37791658988603216,0.17867675590109555,0.6340795572183584,1
0.9489225411121605,91.55751397650369,-0.3599780215058732,-0.7157860803348353,0.3317130881157544,2
0.7619263815281809,97.59268819666188,-0.3210121698801145,-0.48121678515828825,0.4706906436284044,0
0.7032987485975442,53.909927092209756,0.3603170935177573,0.09249593520577704,-0.45644245158339736,1
0.7410656890206422,53.695481559783104,-0.8837324179463428,-0.5249539163038623,0.9860160725683287,3
0.9700055925544315,30.496426894205968,0.8582327053826513,0.3582554748017466,-0.6336686910122258,0
0.9621670232687546,77.61754818312619,-0.5549579116451071,-0.017017395480954933,-0.571012251221235,2
0.8792239306510925,87.78079270240401,0.9993464104841845,0.5439781405093818,-0.4221563363683063,1
0.880155058130096,40.26258102520022,-0.656954612425626,0.8964890714449372,0.9506648602131578,3
0.8995110023638766,41.176644455700554,0.543092914624755,-0.7683902213051845,0.9765771787078121,3
0.7526113835870348,85.30582749800064,-0.5531749101407499,-0.3306699800309103,0.589787499412995,0
0.974323583777488,73.14035238479013,-0.838306396713492,-0.36090187424318687,0.25811519711926745,3
0.825631157467622,33.14023903394019,0.7498666487012977,-0.6976341613254915,0.040125150369226814,2
0.8149415584748492,73.57828933235972,0.7175025183817838,0.6206062746669416,0.9412416913736914,3
0.8556753115848512,51.624240599063626,-0.1928592151007973,0.51975740807758,0.391245605716495,0
0.7140897900325165,55.810760882959215,0.40479228508085363,-0.031149058331201962,0.8894602566520604,3
0.7498850106268238,83.88119928078162,0.11413186536783426,0.07554155558921916,-0.36689840104475224,0
0.9214100849279111,86.76546348708274,0.7059122273474976,-0.8809117239950075,-0.33245041546086873,3
0.7248396003775379,58.02496387878814,-0.36988806136269115,0.11101470465409125,0.7094491882368712,1
0.8809456328399164,96.30070552044484,0.047344799997970366,0.5826830480392728,-0.7002901588294113,0
0.7736047329043962,58.45239025664506,-0.029255257590899086,0.14765514716771433,0.8918557225921515,2
0.8167886842125929,84.02852246610769,-0.29218834748628253,-0.4693872597591622,0.014948709326815024,2
0.7866081210312099,63.87140851949813,0.7829101291127445,0.33509654466867445,0.8528277571673955,3
0.8067018149394847,92.82726285654589,-0.668244150674929,-0.2770231400695047,-0.32641442254837383,1
0.9157137715552737,93.54328705551251,-0.7009827209586077,0.08974656857147045,0.431917808278794,3
0.7891365146869525,36.11917655097587,0.1538190706455027,-0.024869273442150508,-0.03424975605462066,3
0.8699213920890692,95.5545331917158,0.314988459969884,-0.23764999806963982,0.25360726049094606,1
0.8428151206597299,87.78743890642909,-0.6107614913508697,0.43775596078827017,0.008744986278304445,0
0.8991013496087944,85.39175000188668,-0.21856511549075175,0.7677522239717636,0.9342312347427228,2
0.9810489217974274,44.063793777986575,0.8931276859574875,-0.9895749630461501,0.38421079562783444,1
0.9197716291630751,86.35834461282654,-0.506765154618652,0.8672330384607345,-0.49736206274736916,3
0.764482113577227,89.50929142795258,0.33672140423478814,0.023030272166449928,0.8193538438101691,0
0.7093549405183853,50.24052341179056,0.4802987873951816,0.40146376072653034,-0.4119405236897913,3
0.7786792132899475,96.65820548536266,-0.10374260106968092,0.7112491323517542,-0.25678980139828744,0
0.8785233792100764,33.4902102479415,0.875051973519166,-0.06579261537146008,-0.7957526039595733,2
0.7154277440452751,40.49364772729977,0.473313470437581,0.6699481467297805,0.7999330395923816,2
0.8489098741603709,67.630679663606,-0.0841508402782043,-0.6447603610895956,-0.427775953544274,0
0.8790528546750668,70.30547297856168,0.13867040355218796,-0.6816649310403711,-0.4821647641372353,2
0.8002731672450882,75.16050583106323,0.38522688685020134,0.3149427377123071,0.8405251959899078,3
0.9312736611237465,31.18783905208265,0.18438036085843645,0.7402860111034744,0.6110537248100667,0
0.7319794759401315,97.22567422354912,0.7573951676521518,0.7848523550720787,-0.7178421569612512,3
0.7225413345207425,33.12116649139008,-0.28622267543919766,0.28748091675449317,0.5386490078073614,0
0.918456626861081,40.01433669063817,-0.40022851988839014,0.05097846041863496,0.8260661961075815,3
0.8486473948618596,30.98101622682399,-0.5723222210094714,-0.3372138246069676,-0.8429775635785122,2
0.9065207189283209,69.68009033058664,-0.9244340638708097,0.9600008311986628,0.6504299898091461,1
0.8304482015811239,95.25868187446805,-0.9139720712398893,-0.36060862666749904,0.09484010374611196,3
0.773920609971732,76.6163016256325,0.7401103862185656,0.48837221446318635,0.3383948987576013,0
0.94573069530226,87.58602279362991,0.3567862928118146,0.06396359981000144,-0.014291322190126188,2
0.9398247636906938,30.929684242100606,0.3210648308729722,0.2170246850506934,0.3956061698105573,0
0.908408941256328,67.94107089358081,0.22928563786977207,-0.21303889882274762,-0.9318042766664936,3
0.7816435411689888,62.169408425386536,0.6984382893882097,0.9296462509444956,0.5254134464465674,0
0.8770692000607261,64.92775609545552,-0.039466148668745094,0.1433646521985421,-0.9333126042820832,0
0.808292169082008,35.05492297346316,0.7408216571166006,0.87557526091758,-0.08940030450531311,3
0.7274746219979902,77.91047527485152,-0.28110994763552166,-0.9848171676521718,-0.6980700137394102,2
0.9751940726386729,65.22542904010442,0.8534150086781811,0.14534116638224193,0.6471485547026143,2
0.7410455892756884,83.56041949028848,0.3973139601624802,0.4343737794505429,-0.37267818164866284,3
0.9850712061462408,63.97034438432007,-0.48564572795114547,0.49016034232443606,-0.09181291079133502,2
0.8338017318873867,40.456714535850246,0.12816984337725024,0.8099537635633627,-0.14249851740337682,1
0.7555398786515859,75.37798678544755,0.06606112297651112,-0.9911967819924274,0.545003931369413,0
0.8625702842135075,42.067045347361635,-0.7242023565393321,-0.9993396814810471,-0.03771128040804905,3
0.9618837507629225,91.06761943483704,0.18248581150122822,-0.05547307840956939,0.5779166700206921,1
0.9196674659228683,72.91813673484691,-0.3704287525660841,-0.9414125899892587,-0.8529834463946495,0
0.9419683443584349,41.0042718489868,-0.8953024663807951,0.9490651073247491,-0.6168120641940098,3
0.8976350100132152,97.36366402368448,0.8973123154131297,-0.5558696509172161,0.10306849929272133,2
0.9076829693553558,66.28558243347244,0.2829807381285756,-0.05467054127031057,0.89417664950539,3
0.9547586954695958,35.10289163101585,0.753837863741694,-0.8777247399755528,-0.8504843065564394,3
0.7749004026577557,73.8783033090547,0.3521120100265063,0.044096832342517045,-0.9138315676862714,0
0.8468274890929421,47.723923490896716,-0.2860326157197741,-0.24008774970518298,-0.6868986501442886,0
0.7663628325458807,86.25854163141116,0.025376144657622834,-0.9106799422455525,0.28230625772031304,0
0.9963004023989941,87.24754514963334,0.35149352069435413,-0.3297514666075505,-0.20201416665950567,1
0.983217801905984,98.52631490982633,0.9205046504028751,-0.21712795955428876,0.6511047588353724,2
0.7118280434105517,65.13086717171527,-0.49266108175660706,0.97984298254988,-0.8561336970372684,3
0.9116725517547065,61.8469815809416,0.7499541172482354,-0.5842282561612491,-0.6071718263705979,3
0.9775744952246997,82.74329238125364,0.8481556105885388,0.08955923074019934,-0.39994718907020865,2
0.7541726035382,39.27294594393486,0.3408310293179131,0.9746310983972573,0.25346017337757054,3
0.8703835691657889,68.2840859655187,0.8625332548026756,0.5840384158802703,0.3703453806030945,0
0.9746464892764126,68.23733200915956,-0.20424282504526303,0.9867350017641778,-0.7515934120724523,3
0.7101837935757396,36.263118596727104,0.9060323520808855,0.9365966293203385,0.887609417983479,2
0.9092260801740519,59.25888598548395,0.40556575433194975,-0.02092091581169142,-0.3179117296195817,1
0.7892047022117652,89.72993589970415,-0.9159884651623762,0.39275169974113155,0.4263375260005662,1
0.9773188586129591,89.93075353962621,0.8137456636381055,-0.7791137461176978,0.048415437895397595,2
0.9913174735496103,36.94663654437767,-0.031054381933614872,-0.11770234990639628,-0.5544837729057868,3
0.9832799467340302,36.350461792348156,-0.0793460304443343,0.6180370845333949,0.6924566462308221,3
0.8422642649972392,48.38868339013547,0.13293321195926855,0.010670641954286797,0.6364760563838598,1
0.958612795296794,91.23362437877955,-0.7012309064575442,0.4053980656344638,-0.20785629216661983,3
0.9533648195605211,39.02318095514492,-0.06166790286520274,0.4915026599685539,0.1772151713877108,1
0.7957301419729766,80.39977618392123,0.6622544334354914,-0.49306171751421224,-0.48434860812812053,2
0.9486746422452033,37.081593372917226,-0.9690350817249693,0.751398745885131,0.3797032574926029,2
0.7111022904146478,73.61964976234778,-0.4541656793512574,-0.08035513818164208,-0.3819463747591372,3
0.8788809635446159,54.92471093834014,-0.9950908271123116,-0.5796297927569125,0.6881574687644698,0
0.7690026511863108,85.22397740761069,-0.16857738170030334,0.7308317635768875,-0.5652297914454514,0
0.7361700657331836,46.35833141777545,0.4566310209874693,-0.16436238778749268,-0.9703931543630717,1
0.7230859604887627,74.74412805729719,0.597543658229257,0.5006248767594395,-0.4629839160641631,2
0.908886632763442,46.49777742031195,0.8903795222540132,0.09606614444318584,-0.6178950270810266,1
0.8019624891304198,79.95621981785077,0.21700922594157301,-0.23625649553099914,0.016572879449848532,2
0.9174300314586284,91.15746241925241,-0.49074626669420907,0.6197528300771387,-0.5925934166868474,1
0.7196069022396827,38.8761259388732,0.8482958982733979,0.16893986328922606,0.5263797414389895,1
0.7945871013491831,90.66169820168525,0.5506315077607522,-0.21887579514593658,-0.5172587239919921,1
0.8618473877126012,71.55026780900086,0.14885696600628906,-0.780804259329746,0.4139363598253114,3
0.9372169494516891,38.89773436069168,0.39128043143787195,0.7908906275334158,0.1569418460274481,0
0.795625750879621,59.92792987517984,0.8486327100148583,-0.9290608293166669,0.9724997129437687,2
0.8877674129311027,41.260220543956855,0.4247880569458433,0.7263746967361124,0.9998019540184633,1
0.9657933244708561,79.02435222065986,-0.263250984830532,-0.28007695023368906,0.7390521666346599,0
0.8847589564546914,83.12076940925647,0.4260564045781934,0.2786775270028117,0.5199667385975022,1
0.7698878424260901,37.40575641909593,-0.9194436745292243,0.8443994476713705,-0.22708717199885253,1
0.7073202344669614,65.4297896886251,-0.22716887633883753,-0.6965867689922032,0.5065534542626071,2
0.961029662170279,87.0237539218142,-0.18735393630884145,0.13390095127762036,0.9133510741589814,3
0.7063808232551161,95.53141290856975,-0.6663235311583307,0.5288657247403841,-0.9532448492091117,1
0.9624105018052598,65.9462506719239,-0.9538290388964596,0.5151676654381148,0.07582940039547759,2
0.8586811402081636,96.5195456527985,-0.7332375267245144,0.05126382919900796,-0.5640033912231308,3
0.9817203095538689,67.49822793192209,0.3092429915941102,0.24947891981291614,0.1157526317377009,3
0.9396349707320997,57.593334621993556,0.6045776327273751,0.515053988265689,-0.06710582048221769,0
0.9993802331600012,89.37421899870267,0.9764069854539483,0.6820552755148235,0.15153716310456877,0
0.805213544635513,64.50878973206623,-0.3072729937830114,0.5236261937517275,0.10192444283744839,1
0.930156486679338,63.033175739516615,0.19875844452220348,-0.2919901136375147,0.920214078337124,0
0.8205792740827726,64.32187425868798,0.8742899336302439,0.9934528021154663,0.10437221786947215,2
0.8439626860911726,89.27495013088217,-0.6659164373236948,-0.13099461256139122,0.6924641762497346,2
0.8882516389655111,88.23590791816365,0.43529117268548534,-0.9510705944821332,-0.360359426398307,0
0.9621031342559017,58.24639947081478,0.5099574662983264,-0.27476609682907593,-0.12379862241790218,2
0.9952250407597885,53.33099019093675,-0.8220489282613233,-0.7444340908523135,-0.05917304791038025,2
0.9304820241593554,64.43496168273904,0.7224987703661301,-0.75711476854325,-0.4425439133292406,1
0.8253300346502002,70.09407568159763,0.6262100942216877,-0.4369299197862113,-0.2404194770440895,1
0.8264071006831211,46.68360474395979,-0.9331939868451311,-0.8932490116454783,0.19702615893355047,2
0.9212746904766674,85.57685593009134,-0.817831170239897,0.37702437681912615,0.16037552660906473,0
0.7716331437304906,64.0537936012696,-0.9017462122162954,-0.8520222315961898,0.272870689146961,2
0.7331422339394184,53.383188389397176,-0.33051293640127555,-0.5934208891280877,-0.29636416915971786,3
0.806386647292233,37.47746950747934,0.018577981359852336,-0.8142005710117612,-0.36833700969388583,3
0.7861716974962245,46.71916122825249,0.06469545590925763,-0.8736645381939379,0.22323576550832613,3
0.788892436136797,96.44968202291886,-0.4646664804611147,-0.4644966689209167,-0.7342765031449501,1
0.7700823253149729,51.35697807736686,0.8231937731205483,0.14379793532073992,-0.49393691293572006,0
0.7126279568909085,41.82015025569247,-0.2634744202561736,0.9293711128936835,-0.9157445260940096,2
0.7053621804200241,62.24709541584952,-0.908899688069295,0.7511133086992126,-0.8547782948078397,0
0.9963167169208095,51.4961420352174,-0.39954577691722726,0.7518678508906496,-0.5132334414787822,0
0.8283319401207587,32.461147518983594,0.06221884508831099,-0.6478659279246848,-0.960941439406162,0
0.8152979941479045,52.620165209559204,-0.18355635482353594,-0.4701856130043598,-0.509178815825077,3
0.9038941848079209,68.08760367576281,-0.4523149618014817,-0.8472133664093886,0.30995264612405204,2
0.7654761663595192,68.61986604139769,-0.7373535004713652,0.5569366798303701,-0.8777858430621339,1
0.9849883551850676,54.95912448238221,0.6383290001924595,-0.8603673970288761,-0.12652664441071804,0
0.9359035043246656,61.311192937682044,0.9922904842483837,0.1133913416417065,0.8262175738390989,0
0.7268233006936778,97.58625427643365,-0.3409157329522359,-0.5042488553520985,0.582569657850802,3
0.8252742327354785,56.41439340612182,-0.23675791164679216,-0.5131087319425105,-0.38912499541028556,3
0.9637354922686494,48.07587692819881,0.2360750493539141,0.9814501104952102,0.849610958383294,2
0.983419606687423,47.0426930846732,0.43688294947108264,0.5135596139570748,-0.3407070065045503,1
0.8402204533749609,62.04352288928939,-0.21594093039281748,0.6738787165821003,-0.854969007324875,1
0.8840234167632123,83.16641041018607,0.8098590339636305,0.14396537068802528,0.9881119135362271,3
0.7501101838276225,44.41917289319312,0.12000797845783673,0.7420285747874984,0.7400450543783434,2
0.997350587841093,79.65072889985376,-0.09921984718813803,0.2909810783327058,-0.06813443339781533,0
0.769501510415033,31.48048763445914,0.29334550631981027,0.8923474095926907,0.3327530483848078,2
0.9828195322405378,59.32530845887622,0.9056076964983464,-0.43732282790872645,0.3424561557133403,1
0.8948939946977106,84.31055456419509,0.589104588843411,0.19063909156579006,-0.6110355385390793,3
0.8823210384636577,53.7113069042102,-0.9199737389297513,0.38026269587378425,-0.5999027336927354,0
0.8538065533049526,69.46159710117797,-0.33538017852008073,-0.21412538994438668,-0.06083859329634844,0
0.7692009435153275,44.348546297813755,-0.058910630097554595,0.7594159648081065,0.8231462802753959,1
0.7529584096016524,81.93967737883206,-0.3709648555817895,0.9596063262083088,-0.9800124502828584,0
0.7661458627210526,33.65953722881317,0.40037512166091305,-0.012461017254676854,0.5650112718987186,2
0.7559314786432764,89.67798514128503,0.6525382997251621,-0.21871869039132186,-0.8849464325706917,1
0.933875342070026,43.87374704951677,0.46269019037054315,-0.05612414288708267,-0.043555770233764335,1
0.8050375777500189,91.20786221958315,0.9786665736565505,0.7054734914638632,0.27574566614695284,0
0.7173528029690188,54.67704689103621,-0.4549047042139418,0.29093685103633526,0.37351853416492964,1
0.9907307890422434,80.58785021321407,0.7499789900488429,-0.9104552549638099,-0.8830414727681772,3
0.9651357654890277,52.34577084503319,0.5332453303489724,0.08433982089142966,-0.16279276523206354,2
0.9783256849585639,93.41381698642533,-0.2756424848837078,-0.9653997545180604,0.1676745210046493,1
0.9984723467939306,38.86459878628621,0.46824908731393733,0.5570707420068108,-0.8679089253879861,3
0.7521685747658462,42.49638524908191,-0.7918480871635061,-0.34337545291507254,-0.7298108868093804,0
0.8188726056707976,64.51210876111617,0.5786669646811047,-0.05598503576534131,0.327297979008077,1
0.9274715427112274,35.73569073267023,0.06466120517420526,0.597356211815264,0.043276393181303385,3
0.9088061854161377,43.71861292912334,-0.41541965458149366,-0.9071023654284769,-0.6763426774634189,0
0.7461687719019565,96.063646754841,0.3115546035683603,-0.6829169288167791,0.07047867382946693,3
0.9447499374971853,98.3542762803521,0.283239997428818,-0.20407924710977032,0.8253847468888316,0
0.7673321715509982,56.33815305312953,-0.5810275545608006,-0.5401496729088788,-0.9688248304492721,2
0.7671452844467869,94.63002147097549,-0.9392051703769477,-0.3241971484498738,0.2852675469717092,1
0.8610923268680241,68.13772729714023,-0.13275482619665224,0.99634947578493,-0.8526991307893161,2
0.8778819804525109,48.88197261116369,0.13902373868884244,0.6508288751476214,-0.9871011140705983,2
0.8740258623513433,79.1679104756419,0.7532105567411969,0.7678036299202171,-0.6986910226787324,1
0.7274460512193264,76.12312646024,0.8564335912951888,0.8741092671315507,-0.1541867362921614,2
0.9632382587891142,99.23877233761134,0.0576104363135328,-0.3181282393716087,0.6046879979639059,2
0.7796800127766118,48.55331011864983,0.5076069675370898,-0.4058460844070546,-0.4364290067908827,3
0.7388544763848413,77.04416518632148,-0.12139345534400614,-0.5318750148558502,0.25134642477751723,0
0.9666244239606931,33.64166285206128,0.492164313145786,0.6602338226162452,-0.17768672408938668,2
0.986695449468926,37.95522270877036,-0.5903969501216662,0.3591037245703699,-0.5313364160679841,1
0.9586382851796351,30.27428624657653,-0.25787053039293717,-0.5276560350342454,0.02849422856571726,3
0.9428548224174634,99.96224767417712,0.2684559976272296,-0.24601234157909024,0.5949289807452465,0
0.8965725941917065,86.15915880032344,-0.9636840687858423,0.01342352786559653,0.6649847401122884,2
0.8652572111827418,85.07061103134785,0.444922620677908,0.056280114547507365,0.6930390637544734,2
0.726096027973423,65.68082527017258,0.6710710025363336,0.7774554571034293,-0.3228843748900412,1
0.8225359639212095,51.0046958033808,-0.20171667781209712,-0.2388677341055674,0.5869121294315061,2
0.8118065551036941,40.58849991238731,-0.10411516564567136,0.8170480610010247,-0.5756430897821843,1
0.7779261351280978,49.92723171925246,0.702564424433062,-0.11726487936042074,0.4768502024857666,2
0.9170260341065755,56.31798553503974,0.5513092706520668,0.4927453495847076,0.8967688525452333,2
0.8487627205236312,82.94170678862059,-0.42370102193325,0.8605086399701121,-0.9725123306180856,1
0.7243138647722943,67.77632522322067,-0.35204778687692206,0.8151514079265327,-0.11927213764240396,0
0.7660549605849434,35.42385385888379,0.3577564647811933,-0.8860942654086377,0.2955419768280092,3
0.9049776290978788,31.262030627123856,0.12639618489632243,-0.5885914100468603,0.40355154097510604,1
0.72283925784709,37.16325256738442,-0.6755408578070061,-0.046189148935449786,-0.6478244834615956,0
0.9553620742146306,58.73490995881656,-0.3801401815416672,-0.1368914200937854,0.9443665504771857,0
0.8485439581041923,95.32350419343128,0.7999665537573082,0.2817833296744141,0.23053073594194595,1
0.8441759731979943,74.61817368464551,0.37634887344452683,0.8894181016508245,-0.6713187975434645,3
0.8777223353978553,86.12781299128605,0.9719486353710389,-0.7751905774441024,-0.9589549765749694,1
0.9474042897775448,62.646221615318396,0.5340250599615388,-0.09628266973151911,0.5665283975795519,2
0.8043427623706578,55.316625823653,0.8839488642871804,-0.6151779242257214,-0.8405905211090818,2
0.9034048457677191,37.588026090163595,-0.5676228522590492,0.788215196795895,-0.7178981578595269,0
0.8697195891987373,91.31531155303435,0.5429697496338515,0.9291603716033057,0.14966005371138125,2
0.7801084810508263,84.82120203195319,-0.9595649597044051,-0.042596636219299766,0.20701100689923946,3
0.9635889959065473,41.76826683184076,0.34152004342306785,-0.7919794045437185,0.37377423718479696,1
0.9392278064820785,65.85823947133824,-0.06143544375951726,0.5705893334453465,-0.21297197467275852,3
0.8975355503975276,64.11623655448714,-0.30647985615986273,0.394282700984798,0.5477973379336458,0
0.9551745187282725,73.75640868805701,0.7248087045861782,-0.2906583467793791,0.9487171992317773,2
0.9601882602879407,96.23308257938828,0.7085353853150613,0.7748149479379269,-0.45781011384023396,2
0.9125088930145104,70.58400092337357,-0.9553965902027128,0.9516637795654144,0.4060572330758918,1
0.9511039985091017,67.81520867450331,0.219010244898862,0.11570769826039085,0.8569373047903137,3
0.9092414385007851,33.522605305426474,-0.2643355513580872,0.1314558226885847,0.3725735252340854,3
0.90404223152809,34.40352332126167,-0.1686779969991017,-0.40497298977244434,0.36221899728851903,1
0.8855834134645553,43.11427539287522,0.6640814784375519,0.16901207196662837,-0.5524548618295868,2
0.9258149918672923,32.27295401842238,-0.38032045694464345,-0.12071535895030694,0.07026040063938588,0
0.7475815315879221,82.03470268990087,0.8860976212752403,-0.3956179461438962,0.12504568720916032,0
0.9642612277596785,80.63312127957742,-0.6407323472557185,-0.8656296069521974,0.40025912491190563,1
0.9615530583235696,39.52393641021501,0.32544484673635554,-0.4945842805817502,0.9936428997923652,1
0.7087741849103677,88.52552305566967,0.3442101340275294,-0.6042907006446712,-0.9327123549124758,1
0.9477450251694288,40.83502243922784,-0.4956096771441636,0.08408396910789784,-0.8695346774650263,3
0.7386609602420335,51.082291089815115,-0.35049878206559604,0.2033400435271877,-0.8440998611381625,2
0.8005356562777426,47.42838294129555,0.6695969851598809,0.21714344861203294,0.4859582689779136,2
0.9230524768874824,56.06149690011334,0.5236105099099049,-0.2236379979086418,-0.727292409778485,1
0.7482279688144924,47.82646361229733,-0.3418082393704809,-0.15754053262900802,0.24490374898069045,0
0.9453901072357187,64.22656485069164,0.06791309386986777,0.66847685928128,-0.3506622442130831,3
0.9496402533873226,58.51855169482798,-0.8766394074938091,-0.0475343729656752,-0.08536008757857805,1
0.8522403201282509,99.05986435455286,-0.5825082352027415,0.9755466642742447,-0.5686736803651722,3
0.7019157615150501,33.9148445089758,-0.028358882279201802,-0.12076553998227024,0.7322131226090842,1
0.7861114399524738,39.95269634711461,-0.8280525294415768,0.299161889235678,0.17230064832605274,3
0.8850780755127227,33.69781257360217,0.686664709783875,-0.8992740020132084,0.8891265271645052,0
0.9943558534082271,73.80888364876631,0.43601242021529574,0.30667984883762167,0.14919249940865908,0
0.8895440581050005,33.81564941896037,0.8872673412969896,0.7028527888300122,-0.7521839388061067,0
0.7779410743192479,88.55078161632863,0.3869338119280543,0.8849156770665925,-0.6582591323230491,0
0.8902017109298834,65.83570414773494,0.8808027445243711,0.994641223279541,0.9781479527356944,2
0.8619956139147567,66.89053372070737,0.10902511138193005,-0.43564270870153377,0.45113039466173555,2
0.9339536185453431,69.31161553985359,0.20043722212393877,0.15074012965143369,-0.9014424999418207,3
0.7320941916480875,41.95695944143475,0.9539421092525218,-0.09856402893570526,0.40756201006932957,1
0.9283083707506083,43.83832121801413,0.28425829372852074,0.127634961150342,-0.17565390638077671,2
0.862379973602833,52.31721260111033,-0.9384268622785068,-0.6850940856203067,-0.38558322635361897,1
0.9888976011576984,71.5447491075296,0.44760555326104656,0.712299145191883,-0.6918784125389315,3
0.8025616498116058,44.708244315815016,0.8109373842748313,0.8191378866891752,0.6798079091131313,1
0.8897865679401844,38.143220899328284,0.5911604995886532,-0.1006766737741549,-0.8723172420217986,0
0.9796084316530053,97.90818204929025,0.16766654525084523,-0.4391402768528463,-0.4203290752407194,0
0.7307529183972037,31.538727036673603,0.34260702618703265,-0.7183331446939754,-0.38723421234859123,2
0.9811685461709354,86.18881837352151,0.9803835785033435,0.36752964955560885,-0.6781894320729993,3
0.906365716690244,85.16246047025155,-0.8186758229813234,-0.3755363207585296,0.016369766573740563,2
0.7203511177315516,50.80498796915672,0.33448965726647906,0.8190771398267773,-0.9765947463782148,2
0.7902890700840448,39.49386312051194,-0.43320461085881234,0.34202494968974007,-0.39804896917918176,2
0.9124516265935845,40.19400526937964,0.2801807931723401,0.2913706503484814,0.867258888066128,3
0.7202051804406314,78.82021320660348,0.21524715176787756,0.1188042317964817,-0.3789408613159886,0
0.874651138052882,74.99646137603216,-0.6930863357836758,-0.9084473211425488,-0.27908122578649674,0
0.8037649170858869,84.79219719759706,-0.5865067085195217,0.8638448713711739,-0.053669903531856855,2
0.8862746553302431,95.62368206793732,0.243259156086427,0.25587498659892005,0.1233867497029495,1
0.7137226101437538,78.43491542866144,-0.7435401053924517,0.9881239667662207,0.617417289641488,0
0.9614610418457128,40.90960755860104,-0.4696382497393543,0.07471280954577408,-0.6193575536879647,0
0.992046690753219,47.04098317357875,0.6704910954760048,0.42022178381242625,0.7434927543851144,3
0.9906633565857075,88.95356116111802,-0.3458169879967228,-0.8875808842675557,0.5150987142877788,0
0.9248955495228774,44.6514253083946,-0.02387968746067415,0.26347235364682176,0.4453006693231105,0
0.7390258720391896,35.076562186813696,0.8822806702916806,0.5292992231807145,-0.8263908525707295,2
0.9274789587787068,79.22960378295753,-0.5457018223261074,0.5570285897051146,-0.9567186200508306,2
0.7073760749376404,58.17684488430994,-0.22074796528397922,0.5402233044605709,0.188025401816168,3
0.7066370654586991,94.40280367821325,0.21291555108709126,-0.5474347454126647,0.7262679250463224,3
0.7970830657448623,75.51785497655631,0.5106778590079444,0.9507969552104518,0.16888292828127183,1
0.8465929571213997,36.32932844541625,0.8033067734254102,0.9903642412498774,-0.5735302691089383,0
0.9311222253423379,96.34995970775626,0.8309459751470303,-0.8488082496767975,-0.8189602041015736,2
0.9049886129819515,48.09900845481721,0.5532801487452459,0.8728928456235145,0.39919290563546994,2
0.8337708119130245,53.604874328440005,-0.5433383268133791,-0.42110161139126134,0.44354055463561903,0
0.7820879998844997,58.15822895784794,-0.9503813399148684,0.37856816350192957,-0.6549365986257827,3
0.9991373500473133,33.585700748301925,-0.2324521392887524,-0.3237781585277357,-0.9436193690069274,2
0.8278543906707918,64.75607955614234,-0.7169022980243533,0.935508646746243,-0.183432973553606,3
0.8354161072989026,38.63229437527046,0.42077529487659615,-0.796992283392929,0.16543740426604425,2
0.7490871463575007,58.067922868184624,0.3222611736514336,-0.0045063660872479705,0.41200481913438236,2
0.9384428646249788,54.5496851594459,-0.9120567167570903,-0.1439044161158507,0.6198900183058056,1
0.9081046677344466,84.09880583985523,0.6731875582619022,-0.3479530954440302,0.22107485461346466,2
0.7662308838366281,86.22193581429119,-0.5025134674176355,0.29106798176029725,-0.7782387828030299,0
0.7247143136847528,40.73890176723616,-0.13554584901791555,-0.737888513156665,0.36516334428482966,0
0.9041497906224139,55.658583116545834,0.33586747091148483,0.4333248362673938,0.9683532857897641,0
0.8963533642843405,56.13472127222822,-0.14116242629549336,0.9611842476095747,0.8111691691948077,3
0.7819778580994627,40.598731075525954,-0.11742439440011321,0.6091174289372603,0.7433378185390254,2
0.985259068675123,85.89174535358333,-0.8687440093285193,0.7200335058190908,-0.3956596932833183,3
